"trial","subID","cond","dim","resp","corr","acc","rt"
1,100307,"relational","texture",0,0,1,2548
2,100307,"relational","texture",1,1,1,2528
3,100307,"relational","shape",0,1,0,1690
4,100307,"relational","texture",0,0,1,2438
5,100307,"control","shape",1,1,1,1836
6,100307,"control","texture",1,1,1,2372
7,100307,"control","shape",0,0,1,2672
8,100307,"control","texture",0,0,1,1724
9,100307,"control","texture",1,1,1,1361
10,100307,"relational","shape",0,0,1,1620
11,100307,"relational","texture",0,0,1,1749
12,100307,"relational","texture",1,1,1,2294
13,100307,"relational","shape",0,0,1,2610
14,100307,"control","shape",0,1,0,1059
15,100307,"control","shape",0,0,1,1644
16,100307,"control","texture",0,0,1,1543
17,100307,"control","texture",1,1,1,1568
18,100307,"control","texture",1,1,1,1634
19,100307,"control","shape",0,0,1,1742
20,100307,"control","texture",0,0,1,1406
21,100307,"control","shape",1,1,1,1189
22,100307,"control","shape",0,0,1,1275
23,100307,"control","texture",1,1,1,1447
24,100307,"relational","texture",0,0,1,2406
25,100307,"relational","texture",1,1,1,2164
26,100307,"relational","shape",1,1,1,2324
27,100307,"relational","texture",0,0,1,1753
1,102816,"relational","texture",1,0,0,702
2,102816,"relational","texture",1,1,1,830
3,102816,"relational","shape",0,1,0,732
4,102816,"relational","texture",1,0,0,716
5,102816,"control","shape",1,1,1,1072
6,102816,"control","texture",1,1,1,1204
7,102816,"control","shape",0,0,1,1101
8,102816,"control","texture",0,0,1,1381
9,102816,"control","texture",1,1,1,1290
10,102816,"relational","shape",0,0,1,1014
11,102816,"relational","texture",0,0,1,775
12,102816,"relational","texture",0,1,0,945
13,102816,"relational","shape",0,0,1,709
14,102816,"control","shape",1,1,1,846
15,102816,"control","shape",0,0,1,1141
16,102816,"control","texture",0,0,1,1686
17,102816,"control","texture",1,1,1,1106
18,102816,"control","texture",1,1,1,1624
19,102816,"control","shape",0,0,1,1368
20,102816,"control","texture",0,0,1,1116
21,102816,"control","shape",1,1,1,907
22,102816,"control","shape",0,0,1,936
23,102816,"control","texture",1,1,1,1737
24,102816,"relational","texture",0,0,1,1161
25,102816,"relational","texture",0,1,0,798
26,102816,"relational","shape",0,1,0,701
27,102816,"relational","texture",0,0,1,738
1,104012,"relational","texture",1,0,0,1646
2,104012,"relational","texture",0,1,0,1327
3,104012,"relational","shape",1,1,1,1363
4,104012,"relational","texture",0,0,1,1623
5,104012,"control","shape",0,1,0,1339
6,104012,"control","texture",0,1,0,1250
7,104012,"control","shape",0,0,1,1451
8,104012,"control","texture",0,0,1,1340
9,104012,"control","texture",1,1,1,1241
10,104012,"relational","shape",0,0,1,2340
11,104012,"relational","texture",0,0,1,2188
12,104012,"relational","texture",0,1,0,1529
13,104012,"relational","shape",0,0,1,1238
14,104012,"control","shape",0,1,0,1280
15,104012,"control","shape",1,0,0,1399
16,104012,"control","texture",0,0,1,1646
17,104012,"control","texture",1,1,1,1920
18,104012,"control","texture",1,1,1,1272
19,104012,"control","shape",1,0,0,1784
20,104012,"control","texture",0,0,1,1045
21,104012,"control","shape",1,1,1,1361
22,104012,"control","shape",0,0,1,1111
23,104012,"control","texture",0,1,0,976
24,104012,"relational","texture",0,0,1,1527
25,104012,"relational","texture",0,1,0,1651
26,104012,"relational","shape",0,1,0,1392
27,104012,"relational","texture",0,0,1,2000
1,106521,"relational","texture",0,0,1,2118
2,106521,"relational","texture",1,1,1,1972
3,106521,"relational","shape",1,1,1,1775
4,106521,"relational","texture",0,0,1,1822
5,106521,"control","shape",0,1,0,1590
6,106521,"control","texture",1,1,1,1632
7,106521,"control","shape",0,0,1,1856
8,106521,"control","texture",1,0,0,2190
9,106521,"control","texture",0,1,0,1621
10,106521,"relational","shape",0,0,1,3350
11,106521,"relational","texture",0,0,1,3094
12,106521,"relational","texture",1,1,1,2062
13,106521,"relational","shape",0,0,1,1912
14,106521,"control","shape",0,1,0,2093
15,106521,"control","shape",0,0,1,1972
16,106521,"control","texture",1,0,0,2336
17,106521,"control","texture",1,1,1,1550
18,106521,"control","texture",0,1,0,1988
19,106521,"control","shape",0,0,1,1176
20,106521,"control","texture",0,0,1,1451
21,106521,"control","shape",1,1,1,1102
22,106521,"control","shape",0,0,1,1233
23,106521,"control","texture",1,1,1,1798
24,106521,"relational","texture",0,0,1,2403
25,106521,"relational","texture",1,1,1,1579
26,106521,"relational","shape",1,1,1,1926
27,106521,"relational","texture",0,0,1,2968
1,108323,"relational","texture",0,0,1,2599
2,108323,"relational","texture",0,1,0,3284
3,108323,"relational","shape",0,1,0,3427
4,108323,"relational","texture",0,0,1,3155
5,108323,"control","shape",1,1,1,1757
6,108323,"control","texture",1,1,1,1377
7,108323,"control","shape",0,0,1,1815
8,108323,"control","texture",0,0,1,1831
9,108323,"control","texture",1,1,1,1918
10,108323,"relational","shape",1,0,0,2580
11,108323,"relational","texture",0,0,1,2435
12,108323,"relational","texture",1,1,1,2274
13,108323,"relational","shape",1,0,0,2074
14,108323,"control","shape",1,1,1,2160
15,108323,"control","shape",0,0,1,1383
16,108323,"control","texture",0,0,1,2168
17,108323,"control","texture",1,1,1,1267
18,108323,"control","texture",1,1,1,1402
19,108323,"control","shape",0,0,1,1519
20,108323,"control","texture",0,0,1,1341
21,108323,"control","shape",1,1,1,1109
22,108323,"control","shape",0,0,1,1041
23,108323,"control","texture",1,1,1,1364
24,108323,"relational","texture",0,0,1,2405
25,108323,"relational","texture",0,1,0,2635
26,108323,"relational","shape",0,1,0,3446
27,108323,"relational","texture",0,0,1,3054
1,109123,"relational","texture",0,0,1,2012
2,109123,"relational","texture",1,1,1,1621
3,109123,"relational","shape",1,1,1,1618
4,109123,"relational","texture",0,0,1,1835
5,109123,"control","shape",1,1,1,1003
6,109123,"control","texture",1,1,1,1463
7,109123,"control","shape",1,0,0,2596
8,109123,"control","texture",0,0,1,1943
9,109123,"control","texture",1,1,1,1383
10,109123,"relational","shape",0,0,1,2322
11,109123,"relational","texture",0,0,1,2436
12,109123,"relational","texture",1,1,1,2381
13,109123,"relational","shape",0,0,1,2272
14,109123,"control","shape",1,1,1,1074
15,109123,"control","shape",0,0,1,1609
16,109123,"control","texture",0,0,1,1446
17,109123,"control","texture",1,1,1,1799
18,109123,"control","texture",1,1,1,1511
19,109123,"control","shape",0,0,1,1396
20,109123,"control","texture",0,0,1,1432
21,109123,"control","shape",1,1,1,1151
22,109123,"control","shape",0,0,1,971
23,109123,"control","texture",1,1,1,1231
24,109123,"relational","texture",0,0,1,1982
25,109123,"relational","texture",1,1,1,2091
26,109123,"relational","shape",1,1,1,1867
27,109123,"relational","texture",0,0,0,0
1,111514,"relational","texture",0,0,1,1578
2,111514,"relational","texture",1,1,1,1571
3,111514,"relational","shape",1,1,1,2727
4,111514,"relational","texture",0,0,1,1487
5,111514,"control","shape",1,1,1,1464
6,111514,"control","texture",0,1,0,1428
7,111514,"control","shape",0,0,1,1388
8,111514,"control","texture",1,0,0,2542
9,111514,"control","texture",1,1,1,1207
10,111514,"relational","shape",1,0,0,2072
11,111514,"relational","texture",0,0,1,2120
12,111514,"relational","texture",1,1,1,2434
13,111514,"relational","shape",0,0,1,2736
14,111514,"control","shape",1,1,1,1877
15,111514,"control","shape",0,0,1,1306
16,111514,"control","texture",0,0,1,1987
17,111514,"control","texture",1,1,1,1553
18,111514,"control","texture",1,1,1,1562
19,111514,"control","shape",0,0,1,1506
20,111514,"control","texture",0,0,1,1565
21,111514,"control","shape",1,1,1,1156
22,111514,"control","shape",0,0,1,1363
23,111514,"control","texture",1,1,1,1602
24,111514,"relational","texture",0,0,1,1687
25,111514,"relational","texture",1,1,1,2196
26,111514,"relational","shape",1,1,1,1948
27,111514,"relational","texture",0,0,1,3164
1,112920,"relational","texture",1,0,0,1913
2,112920,"relational","texture",1,1,1,2480
3,112920,"relational","shape",1,1,1,1803
4,112920,"relational","texture",0,0,1,1733
5,112920,"control","shape",0,1,0,925
6,112920,"control","texture",0,1,0,1320
7,112920,"control","shape",0,0,1,1501
8,112920,"control","texture",1,0,0,1237
9,112920,"control","texture",1,1,1,1278
10,112920,"relational","shape",0,0,1,2599
11,112920,"relational","texture",1,0,0,2554
12,112920,"relational","texture",0,1,0,2099
13,112920,"relational","shape",0,0,1,1968
14,112920,"control","shape",1,1,1,1352
15,112920,"control","shape",0,0,1,1315
16,112920,"control","texture",0,0,1,1926
17,112920,"control","texture",0,1,0,2140
18,112920,"control","texture",1,1,1,1585
19,112920,"control","shape",0,0,1,1375
20,112920,"control","texture",0,0,1,1078
21,112920,"control","shape",1,1,1,890
22,112920,"control","shape",0,0,1,1060
23,112920,"control","texture",1,1,1,1862
24,112920,"relational","texture",0,0,1,2144
25,112920,"relational","texture",1,1,1,1446
26,112920,"relational","shape",0,1,0,1782
27,112920,"relational","texture",0,0,1,2948
1,113922,"relational","texture",0,0,1,2773
2,113922,"relational","texture",1,1,1,2173
3,113922,"relational","shape",1,1,1,1624
4,113922,"relational","texture",0,0,1,1959
5,113922,"control","shape",1,1,1,1194
6,113922,"control","texture",1,1,1,1244
7,113922,"control","shape",0,0,1,1444
8,113922,"control","texture",0,0,1,1688
9,113922,"control","texture",1,1,1,1475
10,113922,"relational","shape",0,0,1,2430
11,113922,"relational","texture",0,0,1,2617
12,113922,"relational","texture",1,1,1,2301
13,113922,"relational","shape",0,0,1,2396
14,113922,"control","shape",1,1,1,1390
15,113922,"control","shape",0,0,1,1542
16,113922,"control","texture",0,0,1,1788
17,113922,"control","texture",1,1,1,1644
18,113922,"control","texture",1,1,1,1315
19,113922,"control","shape",0,0,0,0
20,113922,"control","texture",0,0,1,2112
21,113922,"control","shape",1,1,1,1579
22,113922,"control","shape",0,0,1,1938
23,113922,"control","texture",1,1,1,1617
24,113922,"relational","texture",1,0,0,2160
25,113922,"relational","texture",0,1,0,2993
26,113922,"relational","shape",1,1,1,2797
27,113922,"relational","texture",0,0,1,2940
1,116726,"relational","texture",0,0,1,2228
2,116726,"relational","texture",1,1,1,1925
3,116726,"relational","shape",1,1,1,2117
4,116726,"relational","texture",0,0,1,1562
5,116726,"control","shape",1,1,1,1043
6,116726,"control","texture",1,1,1,1567
7,116726,"control","shape",0,0,1,1202
8,116726,"control","texture",0,0,1,1846
9,116726,"control","texture",1,1,1,1178
10,116726,"relational","shape",0,0,1,1812
11,116726,"relational","texture",0,0,1,1852
12,116726,"relational","texture",0,1,0,1788
13,116726,"relational","shape",1,0,0,2149
14,116726,"control","shape",0,1,0,0
15,116726,"control","shape",0,0,1,1660
16,116726,"control","texture",0,0,1,1711
17,116726,"control","texture",1,1,1,1740
18,116726,"control","texture",0,1,0,1460
19,116726,"control","shape",0,0,1,1228
20,116726,"control","texture",0,0,1,1257
21,116726,"control","shape",1,1,1,1116
22,116726,"control","shape",1,0,0,1265
23,116726,"control","texture",1,1,1,1399
24,116726,"relational","texture",1,0,0,1789
25,116726,"relational","texture",0,1,0,1666
26,116726,"relational","shape",0,1,0,1879
27,116726,"relational","texture",1,0,0,1851
1,125525,"relational","texture",0,0,1,1315
2,125525,"relational","texture",1,1,1,1468
3,125525,"relational","shape",0,1,0,1250
4,125525,"relational","texture",1,0,0,1187
5,125525,"control","shape",1,1,1,1692
6,125525,"control","texture",0,1,0,1310
7,125525,"control","shape",0,0,1,1332
8,125525,"control","texture",1,0,0,1417
9,125525,"control","texture",1,1,1,1250
10,125525,"relational","shape",0,0,1,1859
11,125525,"relational","texture",0,0,1,1188
12,125525,"relational","texture",0,1,0,1329
13,125525,"relational","shape",0,0,1,1292
14,125525,"control","shape",0,1,0,1890
15,125525,"control","shape",0,0,1,1278
16,125525,"control","texture",1,0,0,1181
17,125525,"control","texture",0,1,0,2363
18,125525,"control","texture",0,1,0,0
19,125525,"control","shape",0,0,1,1862
20,125525,"control","texture",0,0,1,1676
21,125525,"control","shape",1,1,1,1468
22,125525,"control","shape",0,0,1,1273
23,125525,"control","texture",1,1,1,2353
24,125525,"relational","texture",0,0,1,2496
25,125525,"relational","texture",0,1,0,1482
26,125525,"relational","shape",0,1,0,1550
27,125525,"relational","texture",0,0,1,1459
1,133019,"relational","texture",0,0,1,2082
2,133019,"relational","texture",1,1,1,2123
3,133019,"relational","shape",1,1,1,2207
4,133019,"relational","texture",0,0,1,1944
5,133019,"control","shape",1,1,1,1690
6,133019,"control","texture",1,1,1,1675
7,133019,"control","shape",0,0,1,1284
8,133019,"control","texture",0,0,1,1705
9,133019,"control","texture",1,1,1,1402
10,133019,"relational","shape",0,0,1,1987
11,133019,"relational","texture",0,0,1,1731
12,133019,"relational","texture",1,1,1,1814
13,133019,"relational","shape",0,0,1,3266
14,133019,"control","shape",1,1,1,2222
15,133019,"control","shape",0,0,1,1467
16,133019,"control","texture",0,0,1,1712
17,133019,"control","texture",1,1,1,2082
18,133019,"control","texture",1,1,1,1592
19,133019,"control","shape",0,0,1,2207
20,133019,"control","texture",0,0,1,1653
21,133019,"control","shape",1,1,1,1431
22,133019,"control","shape",0,0,1,1225
23,133019,"control","texture",1,1,1,1602
24,133019,"relational","texture",0,0,1,1650
25,133019,"relational","texture",1,1,1,1695
26,133019,"relational","shape",0,1,0,2209
27,133019,"relational","texture",0,0,0,0
1,140117,"relational","texture",0,0,1,2232
2,140117,"relational","texture",1,1,1,2216
3,140117,"relational","shape",1,1,1,2234
4,140117,"relational","texture",0,0,1,2496
5,140117,"control","shape",1,1,1,1304
6,140117,"control","texture",1,1,1,1464
7,140117,"control","shape",0,0,1,1346
8,140117,"control","texture",0,0,1,1194
9,140117,"control","texture",1,1,1,1196
10,140117,"relational","shape",0,0,1,1926
11,140117,"relational","texture",0,0,1,2316
12,140117,"relational","texture",1,1,1,2233
13,140117,"relational","shape",0,0,1,2419
14,140117,"control","shape",1,1,1,1729
15,140117,"control","shape",0,0,1,959
16,140117,"control","texture",0,0,1,1441
17,140117,"control","texture",1,1,1,1716
18,140117,"control","texture",1,1,1,1667
19,140117,"control","shape",0,0,1,1261
20,140117,"control","texture",0,0,1,1387
21,140117,"control","shape",1,1,1,973
22,140117,"control","shape",0,0,1,1412
23,140117,"control","texture",1,1,1,1296
24,140117,"relational","texture",0,0,1,1723
25,140117,"relational","texture",1,1,1,1972
26,140117,"relational","shape",0,1,0,1533
27,140117,"relational","texture",0,0,1,1790
1,146129,"relational","texture",0,0,1,1743
2,146129,"relational","texture",1,1,1,1834
3,146129,"relational","shape",1,1,1,1765
4,146129,"relational","texture",0,0,1,1660
5,146129,"control","shape",1,1,1,1409
6,146129,"control","texture",1,1,1,1851
7,146129,"control","shape",0,0,1,1113
8,146129,"control","texture",0,0,1,1409
9,146129,"control","texture",1,1,1,1325
10,146129,"relational","shape",0,0,1,1879
11,146129,"relational","texture",0,0,1,1882
12,146129,"relational","texture",1,1,1,2001
13,146129,"relational","shape",0,0,1,1406
14,146129,"control","shape",1,1,1,1611
15,146129,"control","shape",1,0,0,2119
16,146129,"control","texture",0,0,1,1849
17,146129,"control","texture",1,1,1,1925
18,146129,"control","texture",1,1,1,1679
19,146129,"control","shape",0,0,1,2117
20,146129,"control","texture",0,0,1,1688
21,146129,"control","shape",1,1,1,1207
22,146129,"control","shape",0,0,1,1193
23,146129,"control","texture",1,1,1,1964
24,146129,"relational","texture",0,0,1,2062
25,146129,"relational","texture",1,1,1,1954
26,146129,"relational","shape",1,1,1,1815
27,146129,"relational","texture",0,0,1,2284
1,149741,"relational","texture",1,0,0,1796
2,149741,"relational","texture",1,1,1,1508
3,149741,"relational","shape",0,1,0,1098
4,149741,"relational","texture",1,0,0,1560
5,149741,"control","shape",1,1,1,1168
6,149741,"control","texture",1,1,1,1747
7,149741,"control","shape",0,0,1,1328
8,149741,"control","texture",0,0,1,1263
9,149741,"control","texture",1,1,1,1132
10,149741,"relational","shape",0,0,1,1773
11,149741,"relational","texture",0,0,1,1871
12,149741,"relational","texture",0,1,0,1794
13,149741,"relational","shape",1,0,0,1927
14,149741,"control","shape",1,1,1,2094
15,149741,"control","shape",0,0,1,999
16,149741,"control","texture",0,0,1,1224
17,149741,"control","texture",0,1,0,1140
18,149741,"control","texture",1,1,1,2234
19,149741,"control","shape",0,0,1,1506
20,149741,"control","texture",0,0,1,1183
21,149741,"control","shape",1,1,1,1549
22,149741,"control","shape",0,0,1,1347
23,149741,"control","texture",1,1,1,2203
24,149741,"relational","texture",1,0,0,2478
25,149741,"relational","texture",0,1,0,1920
26,149741,"relational","shape",1,1,1,2107
27,149741,"relational","texture",0,0,1,1703
1,151526,"relational","texture",1,0,0,1721
2,151526,"relational","texture",1,1,1,2051
3,151526,"relational","shape",1,1,1,1651
4,151526,"relational","texture",1,0,0,2300
5,151526,"control","shape",0,1,0,1407
6,151526,"control","texture",1,1,1,1964
7,151526,"control","shape",0,0,1,1404
8,151526,"control","texture",0,0,1,2561
9,151526,"control","texture",1,1,1,1597
10,151526,"relational","shape",0,0,1,2594
11,151526,"relational","texture",0,0,1,2616
12,151526,"relational","texture",1,1,1,3144
13,151526,"relational","shape",0,0,1,2026
14,151526,"control","shape",1,1,1,2337
15,151526,"control","shape",0,0,1,1570
16,151526,"control","texture",0,0,1,1967
17,151526,"control","texture",1,1,1,2471
18,151526,"control","texture",1,1,1,1862
19,151526,"control","shape",0,0,1,1670
20,151526,"control","texture",0,0,1,2242
21,151526,"control","shape",1,1,1,1374
22,151526,"control","shape",0,0,1,1260
23,151526,"control","texture",1,1,1,1882
24,151526,"relational","texture",0,0,1,2793
25,151526,"relational","texture",1,1,1,2352
26,151526,"relational","shape",1,1,1,2302
27,151526,"relational","texture",0,0,1,3129
1,154532,"relational","texture",0,0,1,2531
2,154532,"relational","texture",1,1,1,2748
3,154532,"relational","shape",1,1,1,2690
4,154532,"relational","texture",0,0,1,2017
5,154532,"control","shape",1,1,1,1440
6,154532,"control","texture",1,1,1,1393
7,154532,"control","shape",0,0,1,1315
8,154532,"control","texture",0,0,1,1846
9,154532,"control","texture",1,1,1,1417
10,154532,"relational","shape",0,0,1,2575
11,154532,"relational","texture",0,0,1,2320
12,154532,"relational","texture",1,1,1,2951
13,154532,"relational","shape",0,0,1,2856
14,154532,"control","shape",1,1,1,1741
15,154532,"control","shape",0,0,1,1618
16,154532,"control","texture",0,0,1,1506
17,154532,"control","texture",1,1,1,1856
18,154532,"control","texture",1,1,1,1802
19,154532,"control","shape",0,0,1,2408
20,154532,"control","texture",0,0,1,1746
21,154532,"control","shape",1,1,1,1500
22,154532,"control","shape",0,0,1,1131
23,154532,"control","texture",1,1,1,1832
24,154532,"relational","texture",0,0,1,2651
25,154532,"relational","texture",0,1,0,3025
26,154532,"relational","shape",1,1,1,2515
27,154532,"relational","texture",0,0,1,2781
1,156334,"relational","texture",0,0,1,2474
2,156334,"relational","texture",0,1,0,1690
3,156334,"relational","shape",1,1,1,1691
4,156334,"relational","texture",0,0,1,2233
5,156334,"control","shape",1,1,1,1201
6,156334,"control","texture",1,1,1,1881
7,156334,"control","shape",0,0,1,1021
8,156334,"control","texture",0,0,1,1826
9,156334,"control","texture",1,1,1,1108
10,156334,"relational","shape",0,0,1,2206
11,156334,"relational","texture",0,0,1,1718
12,156334,"relational","texture",0,1,0,2365
13,156334,"relational","shape",1,0,0,3496
14,156334,"control","shape",0,1,0,0
15,156334,"control","shape",0,0,1,1172
16,156334,"control","texture",0,0,1,1265
17,156334,"control","texture",1,1,1,1897
18,156334,"control","texture",1,1,1,1392
19,156334,"control","shape",0,0,0,0
20,156334,"control","texture",0,0,1,1251
21,156334,"control","shape",1,1,1,849
22,156334,"control","shape",0,0,1,1005
23,156334,"control","texture",1,1,1,1180
24,156334,"relational","texture",0,0,1,2403
25,156334,"relational","texture",1,1,1,1807
26,156334,"relational","shape",1,1,1,1120
27,156334,"relational","texture",0,0,1,2830
1,158136,"relational","texture",0,0,1,1414
2,158136,"relational","texture",0,1,0,1222
3,158136,"relational","shape",1,1,1,1629
4,158136,"relational","texture",0,0,1,1605
5,158136,"control","shape",0,1,0,1575
6,158136,"control","texture",1,1,1,1882
7,158136,"control","shape",0,0,1,1596
8,158136,"control","texture",0,0,1,1620
9,158136,"control","texture",1,1,1,1181
10,158136,"relational","shape",1,0,0,3128
11,158136,"relational","texture",0,0,1,2794
12,158136,"relational","texture",0,1,0,2462
13,158136,"relational","shape",0,0,1,537
14,158136,"control","shape",1,1,1,1932
15,158136,"control","shape",0,0,1,1628
16,158136,"control","texture",0,0,1,1799
17,158136,"control","texture",1,1,1,1882
18,158136,"control","texture",0,1,0,1437
19,158136,"control","shape",0,0,1,972
20,158136,"control","texture",0,0,1,1667
21,158136,"control","shape",0,1,0,1235
22,158136,"control","shape",0,0,1,1529
23,158136,"control","texture",0,1,0,780
24,158136,"relational","texture",0,0,1,2905
25,158136,"relational","texture",0,1,0,2489
26,158136,"relational","shape",0,1,0,1796
27,158136,"relational","texture",0,0,1,2001
1,162026,"relational","texture",0,0,1,1509
2,162026,"relational","texture",1,1,1,1511
3,162026,"relational","shape",1,1,1,2021
4,162026,"relational","texture",0,0,1,1574
5,162026,"control","shape",0,1,0,1081
6,162026,"control","texture",1,1,1,1246
7,162026,"control","shape",0,0,1,1282
8,162026,"control","texture",0,0,1,1263
9,162026,"control","texture",1,1,1,871
10,162026,"relational","shape",0,0,1,1399
11,162026,"relational","texture",0,0,1,1714
12,162026,"relational","texture",1,1,1,1547
13,162026,"relational","shape",0,0,1,1694
14,162026,"control","shape",1,1,1,1200
15,162026,"control","shape",0,0,1,974
16,162026,"control","texture",0,0,1,1131
17,162026,"control","texture",1,1,1,1174
18,162026,"control","texture",1,1,1,1255
19,162026,"control","shape",0,0,1,1091
20,162026,"control","texture",0,0,1,999
21,162026,"control","shape",1,1,1,939
22,162026,"control","shape",0,0,1,979
23,162026,"control","texture",1,1,1,1273
24,162026,"relational","texture",0,0,1,1939
25,162026,"relational","texture",1,1,1,1867
26,162026,"relational","shape",1,1,1,1837
27,162026,"relational","texture",0,0,1,2117
1,164636,"relational","texture",1,0,0,2059
2,164636,"relational","texture",0,1,0,1884
3,164636,"relational","shape",0,1,0,1524
4,164636,"relational","texture",0,0,1,2271
5,164636,"control","shape",1,1,1,1827
6,164636,"control","texture",1,1,1,1576
7,164636,"control","shape",0,0,1,1819
8,164636,"control","texture",0,0,1,1467
9,164636,"control","texture",1,1,1,1556
10,164636,"relational","shape",0,0,1,1877
11,164636,"relational","texture",0,0,1,1789
12,164636,"relational","texture",1,1,1,1585
13,164636,"relational","shape",0,0,1,1690
14,164636,"control","shape",0,1,0,1557
15,164636,"control","shape",0,0,1,1281
16,164636,"control","texture",0,0,1,1545
17,164636,"control","texture",1,1,1,1593
18,164636,"control","texture",1,1,1,1451
19,164636,"control","shape",1,0,0,1632
20,164636,"control","texture",0,0,1,1777
21,164636,"control","shape",1,1,1,1122
22,164636,"control","shape",0,0,1,1096
23,164636,"control","texture",1,1,1,1353
24,164636,"relational","texture",0,0,1,1705
25,164636,"relational","texture",0,1,0,1636
26,164636,"relational","shape",1,1,1,1919
27,164636,"relational","texture",0,0,1,2442
1,166438,"relational","texture",1,0,0,1026
2,166438,"relational","texture",1,1,1,627
3,166438,"relational","shape",1,1,1,1274
4,166438,"relational","texture",1,0,0,1478
5,166438,"control","shape",0,1,0,1173
6,166438,"control","texture",1,1,1,2157
7,166438,"control","shape",0,0,1,2290
8,166438,"control","texture",0,0,1,1859
9,166438,"control","texture",1,1,1,1747
10,166438,"relational","shape",0,0,1,2617
11,166438,"relational","texture",0,0,1,1701
12,166438,"relational","texture",0,1,0,1238
13,166438,"relational","shape",0,0,1,1696
14,166438,"control","shape",1,1,1,1311
15,166438,"control","shape",0,0,1,1215
16,166438,"control","texture",0,0,1,1543
17,166438,"control","texture",1,1,1,1095
18,166438,"control","texture",1,1,1,2420
19,166438,"control","shape",0,0,1,2012
20,166438,"control","texture",0,0,1,1371
21,166438,"control","shape",1,1,1,1255
22,166438,"control","shape",0,0,1,1133
23,166438,"control","texture",1,1,1,981
24,166438,"relational","texture",0,0,1,1410
25,166438,"relational","texture",0,1,0,1358
26,166438,"relational","shape",0,1,0,1996
27,166438,"relational","texture",0,0,1,1866
1,169040,"relational","texture",0,0,1,1924
2,169040,"relational","texture",0,1,0,2028
3,169040,"relational","shape",1,1,1,1407
4,169040,"relational","texture",0,0,1,2122
5,169040,"control","shape",0,1,0,1817
6,169040,"control","texture",0,1,0,1854
7,169040,"control","shape",0,0,0,0
8,169040,"control","texture",0,0,0,0
9,169040,"control","texture",1,1,1,1310
10,169040,"relational","shape",0,0,1,1672
11,169040,"relational","texture",0,0,1,2354
12,169040,"relational","texture",1,1,1,2290
13,169040,"relational","shape",0,0,1,2242
14,169040,"control","shape",0,1,0,1266
15,169040,"control","shape",1,0,0,2522
16,169040,"control","texture",0,0,0,0
17,169040,"control","texture",1,1,1,1872
18,169040,"control","texture",1,1,1,1256
19,169040,"control","shape",1,0,0,2386
20,169040,"control","texture",0,0,0,0
21,169040,"control","shape",0,1,0,1580
22,169040,"control","shape",1,0,0,2699
23,169040,"control","texture",0,1,0,0
24,169040,"relational","texture",0,0,1,1933
25,169040,"relational","texture",0,1,0,2326
26,169040,"relational","shape",0,1,0,3338
27,169040,"relational","texture",0,0,0,0
1,174841,"relational","texture",1,0,0,1905
2,174841,"relational","texture",1,1,1,1641
3,174841,"relational","shape",1,1,1,2264
4,174841,"relational","texture",1,0,0,1753
5,174841,"control","shape",1,1,1,1539
6,174841,"control","texture",1,1,1,1205
7,174841,"control","shape",0,0,1,1224
8,174841,"control","texture",0,0,1,1386
9,174841,"control","texture",1,1,1,839
10,174841,"relational","shape",0,0,1,1838
11,174841,"relational","texture",0,0,1,2106
12,174841,"relational","texture",0,1,0,1303
13,174841,"relational","shape",0,0,1,2219
14,174841,"control","shape",1,1,1,1323
15,174841,"control","shape",0,0,1,1083
16,174841,"control","texture",0,0,1,1397
17,174841,"control","texture",1,1,1,1068
18,174841,"control","texture",1,1,1,1053
19,174841,"control","shape",1,0,0,2661
20,174841,"control","texture",0,0,1,1403
21,174841,"control","shape",1,1,1,1316
22,174841,"control","shape",0,0,1,949
23,174841,"control","texture",1,1,1,922
24,174841,"relational","texture",0,0,1,1525
25,174841,"relational","texture",1,1,1,2073
26,174841,"relational","shape",0,1,0,1835
27,174841,"relational","texture",0,0,1,1287
1,175237,"relational","texture",1,0,0,1297
2,175237,"relational","texture",1,1,1,1244
3,175237,"relational","shape",1,1,1,1504
4,175237,"relational","texture",1,0,0,1646
5,175237,"control","shape",1,1,1,987
6,175237,"control","texture",1,1,1,1151
7,175237,"control","shape",0,0,1,1139
8,175237,"control","texture",0,0,1,1001
9,175237,"control","texture",1,1,1,864
10,175237,"relational","shape",0,0,1,1607
11,175237,"relational","texture",0,0,1,1513
12,175237,"relational","texture",0,1,0,1467
13,175237,"relational","shape",0,0,1,1395
14,175237,"control","shape",1,1,1,1067
15,175237,"control","shape",0,0,1,973
16,175237,"control","texture",0,0,1,1135
17,175237,"control","texture",0,1,0,1348
18,175237,"control","texture",1,1,1,1034
19,175237,"control","shape",0,0,1,1067
20,175237,"control","texture",0,0,1,970
21,175237,"control","shape",1,1,1,725
22,175237,"control","shape",0,0,1,1286
23,175237,"control","texture",1,1,1,1230
24,175237,"relational","texture",0,0,1,1391
25,175237,"relational","texture",0,1,0,1587
26,175237,"relational","shape",0,1,0,1440
27,175237,"relational","texture",1,0,0,1567
1,175540,"relational","texture",0,0,1,1841
2,175540,"relational","texture",1,1,1,2391
3,175540,"relational","shape",1,1,1,1922
4,175540,"relational","texture",0,0,1,2233
5,175540,"control","shape",1,1,1,1695
6,175540,"control","texture",0,1,0,1615
7,175540,"control","shape",0,0,1,1819
8,175540,"control","texture",0,0,1,1679
9,175540,"control","texture",1,1,1,1723
10,175540,"relational","shape",0,0,1,2223
11,175540,"relational","texture",0,0,1,2527
12,175540,"relational","texture",1,1,1,2763
13,175540,"relational","shape",0,0,1,2863
14,175540,"control","shape",1,1,1,1410
15,175540,"control","shape",0,0,1,1317
16,175540,"control","texture",0,0,1,1940
17,175540,"control","texture",1,1,1,1751
18,175540,"control","texture",1,1,1,1653
19,175540,"control","shape",0,0,1,2179
20,175540,"control","texture",0,0,1,1582
21,175540,"control","shape",1,1,1,1395
22,175540,"control","shape",0,0,1,1008
23,175540,"control","texture",1,1,1,1280
24,175540,"relational","texture",0,0,1,2680
25,175540,"relational","texture",1,1,1,2064
26,175540,"relational","shape",0,1,0,2191
27,175540,"relational","texture",0,0,1,2185
1,177746,"relational","texture",0,0,1,2344
2,177746,"relational","texture",1,1,1,1955
3,177746,"relational","shape",1,1,1,2458
4,177746,"relational","texture",0,0,1,2230
5,177746,"control","shape",1,1,1,2083
6,177746,"control","texture",1,1,1,1354
7,177746,"control","shape",0,0,1,980
8,177746,"control","texture",0,0,1,1523
9,177746,"control","texture",1,1,1,1229
10,177746,"relational","shape",0,0,1,2281
11,177746,"relational","texture",0,0,1,2806
12,177746,"relational","texture",1,1,1,2312
13,177746,"relational","shape",0,0,1,2027
14,177746,"control","shape",1,1,1,1316
15,177746,"control","shape",0,0,1,1116
16,177746,"control","texture",0,0,1,1432
17,177746,"control","texture",1,1,1,1973
18,177746,"control","texture",1,1,1,1279
19,177746,"control","shape",0,0,1,2120
20,177746,"control","texture",0,0,1,1416
21,177746,"control","shape",1,1,1,712
22,177746,"control","shape",0,0,1,937
23,177746,"control","texture",1,1,1,1670
24,177746,"relational","texture",0,0,1,2165
25,177746,"relational","texture",1,1,1,1313
26,177746,"relational","shape",0,1,0,2755
27,177746,"relational","texture",0,0,1,2573
1,182840,"relational","texture",1,0,0,1010
2,182840,"relational","texture",0,1,0,1262
3,182840,"relational","shape",0,1,0,1321
4,182840,"relational","texture",1,0,0,949
5,182840,"control","shape",1,1,1,1420
6,182840,"control","texture",1,1,1,1234
7,182840,"control","shape",0,0,1,1387
8,182840,"control","texture",1,0,0,1094
9,182840,"control","texture",1,1,1,1514
10,182840,"relational","shape",1,0,0,1429
11,182840,"relational","texture",0,0,1,1412
12,182840,"relational","texture",0,1,0,1289
13,182840,"relational","shape",0,0,1,1537
14,182840,"control","shape",1,1,1,1074
15,182840,"control","shape",0,0,1,968
16,182840,"control","texture",0,0,1,1486
17,182840,"control","texture",0,1,0,1198
18,182840,"control","texture",1,1,1,979
19,182840,"control","shape",0,0,1,1397
20,182840,"control","texture",1,0,0,1517
21,182840,"control","shape",1,1,1,1142
22,182840,"control","shape",0,0,1,1086
23,182840,"control","texture",1,1,1,1283
24,182840,"relational","texture",0,0,1,1344
25,182840,"relational","texture",1,1,1,1237
26,182840,"relational","shape",0,1,0,1320
27,182840,"relational","texture",0,0,1,1320
1,187547,"relational","texture",1,0,0,2736
2,187547,"relational","texture",0,1,0,922
3,187547,"relational","shape",1,1,1,1273
4,187547,"relational","texture",0,0,1,1045
5,187547,"control","shape",0,1,0,1132
6,187547,"control","texture",1,1,1,1803
7,187547,"control","shape",0,0,1,821
8,187547,"control","texture",0,0,1,1097
9,187547,"control","texture",1,1,1,1434
10,187547,"relational","shape",0,0,1,1983
11,187547,"relational","texture",1,0,0,740
12,187547,"relational","texture",1,1,1,2151
13,187547,"relational","shape",0,0,1,855
14,187547,"control","shape",0,1,0,2707
15,187547,"control","shape",0,0,1,1057
16,187547,"control","texture",0,0,1,1536
17,187547,"control","texture",1,1,1,2157
18,187547,"control","texture",1,1,1,1063
19,187547,"control","shape",0,0,1,808
20,187547,"control","texture",0,0,1,1239
21,187547,"control","shape",0,1,0,624
22,187547,"control","shape",0,0,1,775
23,187547,"control","texture",1,1,1,1374
24,187547,"relational","texture",1,0,0,1139
25,187547,"relational","texture",1,1,1,653
26,187547,"relational","shape",1,1,1,1385
27,187547,"relational","texture",0,0,1,2429
1,191033,"relational","texture",0,0,1,1643
2,191033,"relational","texture",1,1,1,1713
3,191033,"relational","shape",1,1,1,1751
4,191033,"relational","texture",0,0,1,1706
5,191033,"control","shape",1,1,1,2397
6,191033,"control","texture",1,1,1,1384
7,191033,"control","shape",0,0,1,1116
8,191033,"control","texture",0,0,1,1036
9,191033,"control","texture",1,1,1,1334
10,191033,"relational","shape",0,0,1,1727
11,191033,"relational","texture",0,0,1,1926
12,191033,"relational","texture",1,1,1,1532
13,191033,"relational","shape",0,0,1,1706
14,191033,"control","shape",1,1,1,1769
15,191033,"control","shape",0,0,1,1409
16,191033,"control","texture",0,0,1,1296
17,191033,"control","texture",1,1,1,1494
18,191033,"control","texture",1,1,1,1462
19,191033,"control","shape",0,0,1,1074
20,191033,"control","texture",0,0,1,1034
21,191033,"control","shape",1,1,1,830
22,191033,"control","shape",0,0,1,928
23,191033,"control","texture",1,1,1,1653
24,191033,"relational","texture",0,0,1,1747
25,191033,"relational","texture",1,1,1,1487
26,191033,"relational","shape",1,1,1,1724
27,191033,"relational","texture",0,0,1,1711
1,191437,"relational","texture",1,0,0,1788
2,191437,"relational","texture",0,1,0,1394
3,191437,"relational","shape",1,1,1,2975
4,191437,"relational","texture",0,0,1,2007
5,191437,"control","shape",1,1,1,2051
6,191437,"control","texture",1,1,1,1548
7,191437,"control","shape",0,0,1,1364
8,191437,"control","texture",0,0,1,1900
9,191437,"control","texture",1,1,1,1678
10,191437,"relational","shape",0,0,1,3092
11,191437,"relational","texture",0,0,0,0
12,191437,"relational","texture",0,1,0,0
13,191437,"relational","shape",0,0,0,0
14,191437,"control","shape",0,1,0,0
15,191437,"control","shape",0,0,0,0
16,191437,"control","texture",0,0,1,2393
17,191437,"control","texture",0,1,0,0
18,191437,"control","texture",1,1,1,2050
19,191437,"control","shape",0,0,1,1535
20,191437,"control","texture",0,0,1,1495
21,191437,"control","shape",1,1,1,1217
22,191437,"control","shape",0,0,1,1271
23,191437,"control","texture",1,1,1,1380
24,191437,"relational","texture",0,0,1,2375
25,191437,"relational","texture",1,1,1,2910
26,191437,"relational","shape",0,1,0,0
27,191437,"relational","texture",0,0,0,0
1,191841,"relational","texture",0,0,1,1678
2,191841,"relational","texture",1,1,1,2010
3,191841,"relational","shape",1,1,1,1787
4,191841,"relational","texture",0,0,1,2130
5,191841,"control","shape",1,1,1,1617
6,191841,"control","texture",1,1,1,1929
7,191841,"control","shape",0,0,1,1490
8,191841,"control","texture",0,0,1,1371
9,191841,"control","texture",1,1,1,987
10,191841,"relational","shape",0,0,1,2320
11,191841,"relational","texture",0,0,1,1971
12,191841,"relational","texture",0,1,0,2006
13,191841,"relational","shape",0,0,1,2102
14,191841,"control","shape",0,1,0,0
15,191841,"control","shape",1,0,0,1225
16,191841,"control","texture",0,0,1,1511
17,191841,"control","texture",1,1,1,1208
18,191841,"control","texture",1,1,1,1250
19,191841,"control","shape",0,0,1,1846
20,191841,"control","texture",0,0,1,1285
21,191841,"control","shape",1,1,1,1301
22,191841,"control","shape",1,0,0,1201
23,191841,"control","texture",1,1,1,1185
24,191841,"relational","texture",0,0,1,2041
25,191841,"relational","texture",1,1,1,1807
26,191841,"relational","shape",1,1,1,2775
27,191841,"relational","texture",0,0,1,2302
1,192641,"relational","texture",0,0,1,1660
2,192641,"relational","texture",0,1,0,2209
3,192641,"relational","shape",1,1,1,1467
4,192641,"relational","texture",0,0,1,2668
5,192641,"control","shape",0,1,0,1597
6,192641,"control","texture",1,1,1,1265
7,192641,"control","shape",0,0,1,1184
8,192641,"control","texture",0,0,1,1236
9,192641,"control","texture",1,1,1,1360
10,192641,"relational","shape",0,0,1,2503
11,192641,"relational","texture",0,0,1,2171
12,192641,"relational","texture",1,1,1,1920
13,192641,"relational","shape",1,0,0,3347
14,192641,"control","shape",0,1,0,2340
15,192641,"control","shape",0,0,1,1584
16,192641,"control","texture",0,0,1,1581
17,192641,"control","texture",1,1,1,1540
18,192641,"control","texture",1,1,1,1104
19,192641,"control","shape",0,0,1,1587
20,192641,"control","texture",0,0,1,1442
21,192641,"control","shape",1,1,1,867
22,192641,"control","shape",0,0,1,1128
23,192641,"control","texture",1,1,1,1558
24,192641,"relational","texture",0,0,1,1416
25,192641,"relational","texture",0,1,0,0
26,192641,"relational","shape",1,1,1,23
27,192641,"relational","texture",1,0,0,2249
1,195041,"relational","texture",0,0,1,1851
2,195041,"relational","texture",1,1,1,1860
3,195041,"relational","shape",1,1,1,1990
4,195041,"relational","texture",0,0,1,2171
5,195041,"control","shape",1,1,1,1217
6,195041,"control","texture",1,1,1,1473
7,195041,"control","shape",0,0,1,910
8,195041,"control","texture",0,0,1,1362
9,195041,"control","texture",1,1,1,935
10,195041,"relational","shape",0,0,1,1198
11,195041,"relational","texture",0,0,1,1912
12,195041,"relational","texture",1,1,1,1598
13,195041,"relational","shape",1,0,0,1513
14,195041,"control","shape",1,1,1,949
15,195041,"control","shape",0,0,1,1368
16,195041,"control","texture",0,0,1,1206
17,195041,"control","texture",1,1,1,1516
18,195041,"control","texture",0,1,0,1359
19,195041,"control","shape",0,0,1,1116
20,195041,"control","texture",0,0,1,1181
21,195041,"control","shape",1,1,1,908
22,195041,"control","shape",0,0,1,999
23,195041,"control","texture",1,1,1,1311
24,195041,"relational","texture",0,0,1,1246
25,195041,"relational","texture",0,1,0,1361
26,195041,"relational","shape",0,1,0,1320
27,195041,"relational","texture",0,0,1,1787
1,198653,"relational","texture",0,0,1,1645
2,198653,"relational","texture",0,1,0,2015
3,198653,"relational","shape",1,1,1,1806
4,198653,"relational","texture",0,0,1,1265
5,198653,"control","shape",1,1,1,865
6,198653,"control","texture",1,1,1,965
7,198653,"control","shape",0,0,1,1069
8,198653,"control","texture",0,0,1,1018
9,198653,"control","texture",1,1,1,795
10,198653,"relational","shape",1,0,0,1655
11,198653,"relational","texture",1,0,0,1634
12,198653,"relational","texture",0,1,0,1736
13,198653,"relational","shape",0,0,1,1937
14,198653,"control","shape",1,1,1,688
15,198653,"control","shape",0,0,1,1155
16,198653,"control","texture",1,0,0,1328
17,198653,"control","texture",1,1,1,1051
18,198653,"control","texture",1,1,1,962
19,198653,"control","shape",0,0,1,1192
20,198653,"control","texture",0,0,1,841
21,198653,"control","shape",0,1,0,1303
22,198653,"control","shape",0,0,1,888
23,198653,"control","texture",1,1,1,1137
24,198653,"relational","texture",0,0,1,1759
25,198653,"relational","texture",1,1,1,1843
26,198653,"relational","shape",0,1,0,1522
27,198653,"relational","texture",0,0,1,2636
1,200109,"relational","texture",0,0,1,1665
2,200109,"relational","texture",1,1,1,1613
3,200109,"relational","shape",1,1,1,1708
4,200109,"relational","texture",0,0,1,1360
5,200109,"control","shape",1,1,1,1358
6,200109,"control","texture",1,1,1,865
7,200109,"control","shape",0,0,1,1057
8,200109,"control","texture",1,0,0,1314
9,200109,"control","texture",1,1,1,1006
10,200109,"relational","shape",0,0,1,2001
11,200109,"relational","texture",1,0,0,1649
12,200109,"relational","texture",1,1,1,1977
13,200109,"relational","shape",0,0,1,1146
14,200109,"control","shape",0,1,0,1173
15,200109,"control","shape",0,0,1,1786
16,200109,"control","texture",0,0,1,1199
17,200109,"control","texture",1,1,1,1905
18,200109,"control","texture",1,1,1,1153
19,200109,"control","shape",0,0,1,1084
20,200109,"control","texture",0,0,1,1063
21,200109,"control","shape",1,1,1,933
22,200109,"control","shape",0,0,1,1111
23,200109,"control","texture",1,1,1,1543
24,200109,"relational","texture",0,0,1,1572
25,200109,"relational","texture",0,1,0,1974
26,200109,"relational","shape",0,1,0,2801
27,200109,"relational","texture",0,0,1,2363
1,204521,"relational","texture",0,0,1,1973
2,204521,"relational","texture",1,1,1,2096
3,204521,"relational","shape",1,1,1,2945
4,204521,"relational","texture",0,0,1,2238
5,204521,"control","shape",1,1,1,1378
6,204521,"control","texture",1,1,1,2057
7,204521,"control","shape",0,0,1,1974
8,204521,"control","texture",0,0,1,1783
9,204521,"control","texture",1,1,1,2226
10,204521,"relational","shape",0,0,1,2098
11,204521,"relational","texture",0,0,1,2176
12,204521,"relational","texture",1,1,1,2039
13,204521,"relational","shape",0,0,1,1801
14,204521,"control","shape",1,1,1,1626
15,204521,"control","shape",0,0,1,1287
16,204521,"control","texture",0,0,1,1657
17,204521,"control","texture",0,1,0,2029
18,204521,"control","texture",1,1,1,1887
19,204521,"control","shape",0,0,1,1323
20,204521,"control","texture",0,0,1,1503
21,204521,"control","shape",1,1,1,1287
22,204521,"control","shape",0,0,1,1120
23,204521,"control","texture",0,1,0,1399
24,204521,"relational","texture",0,0,1,1812
25,204521,"relational","texture",1,1,1,1515
26,204521,"relational","shape",0,1,0,2370
27,204521,"relational","texture",0,0,1,2422
1,205119,"relational","texture",0,0,1,2479
2,205119,"relational","texture",1,1,1,2302
3,205119,"relational","shape",0,1,0,3054
4,205119,"relational","texture",1,0,0,2077
5,205119,"control","shape",0,1,0,1678
6,205119,"control","texture",0,1,0,1368
7,205119,"control","shape",1,0,0,2220
8,205119,"control","texture",0,0,1,1128
9,205119,"control","texture",1,1,1,1376
10,205119,"relational","shape",0,0,1,2519
11,205119,"relational","texture",1,0,0,3285
12,205119,"relational","texture",0,1,0,0
13,205119,"relational","shape",1,0,0,2758
14,205119,"control","shape",0,1,0,1161
15,205119,"control","shape",0,0,0,2598
16,205119,"control","texture",0,0,1,1349
17,205119,"control","texture",1,1,1,2630
18,205119,"control","texture",1,1,1,2044
19,205119,"control","shape",0,0,0,2437
20,205119,"control","texture",0,0,0,0
21,205119,"control","shape",0,1,0,2300
22,205119,"control","shape",1,0,0,1279
23,205119,"control","texture",1,1,1,1306
24,205119,"relational","texture",0,0,1,2457
25,205119,"relational","texture",1,1,1,2998
26,205119,"relational","shape",0,1,0,2416
27,205119,"relational","texture",0,0,0,0
1,212318,"relational","texture",1,0,0,1783
2,212318,"relational","texture",0,1,0,1572
3,212318,"relational","shape",0,1,0,1666
4,212318,"relational","texture",1,0,0,1501
5,212318,"control","shape",0,1,0,1244
6,212318,"control","texture",0,1,0,983
7,212318,"control","shape",1,0,0,2101
8,212318,"control","texture",0,0,1,2449
9,212318,"control","texture",1,1,1,1522
10,212318,"relational","shape",0,0,1,1654
11,212318,"relational","texture",0,0,1,3108
12,212318,"relational","texture",1,1,1,3186
13,212318,"relational","shape",1,0,0,2006
14,212318,"control","shape",0,1,0,1628
15,212318,"control","shape",0,0,1,2269
16,212318,"control","texture",0,0,1,2335
17,212318,"control","texture",1,1,1,2343
18,212318,"control","texture",1,1,1,1311
19,212318,"control","shape",1,0,0,2050
20,212318,"control","texture",0,0,1,1539
21,212318,"control","shape",1,1,1,1148
22,212318,"control","shape",0,0,1,1156
23,212318,"control","texture",1,1,1,1682
24,212318,"relational","texture",0,0,1,1855
25,212318,"relational","texture",0,1,0,1902
26,212318,"relational","shape",0,1,0,2118
27,212318,"relational","texture",1,0,0,2126
1,212823,"relational","texture",0,0,1,2146
2,212823,"relational","texture",1,1,1,2458
3,212823,"relational","shape",0,1,0,2592
4,212823,"relational","texture",0,0,1,2259
5,212823,"control","shape",1,1,1,1151
6,212823,"control","texture",1,1,1,1675
7,212823,"control","shape",0,0,1,1066
8,212823,"control","texture",0,0,1,1107
9,212823,"control","texture",1,1,1,996
10,212823,"relational","shape",0,0,1,1876
11,212823,"relational","texture",1,0,0,2796
12,212823,"relational","texture",0,1,0,2542
13,212823,"relational","shape",0,0,1,2028
14,212823,"control","shape",1,1,1,1164
15,212823,"control","shape",0,0,1,1053
16,212823,"control","texture",0,0,1,1311
17,212823,"control","texture",1,1,1,1247
18,212823,"control","texture",1,1,1,1544
19,212823,"control","shape",0,0,1,972
20,212823,"control","texture",0,0,1,1130
21,212823,"control","shape",1,1,1,906
22,212823,"control","shape",0,0,1,868
23,212823,"control","texture",1,1,1,1123
24,212823,"relational","texture",0,0,1,1932
25,212823,"relational","texture",0,1,0,2141
26,212823,"relational","shape",1,1,1,2244
27,212823,"relational","texture",0,0,1,2738
1,214524,"relational","texture",1,0,0,1008
2,214524,"relational","texture",1,1,1,1018
3,214524,"relational","shape",0,1,0,1194
4,214524,"relational","texture",1,0,0,1115
5,214524,"control","shape",0,1,0,917
6,214524,"control","texture",1,1,1,921
7,214524,"control","shape",0,0,1,888
8,214524,"control","texture",0,0,1,1137
9,214524,"control","texture",1,1,1,855
10,214524,"relational","shape",0,0,1,1228
11,214524,"relational","texture",0,0,1,1055
12,214524,"relational","texture",1,1,1,1138
13,214524,"relational","shape",0,0,1,1045
14,214524,"control","shape",1,1,1,764
15,214524,"control","shape",0,0,1,775
16,214524,"control","texture",0,0,1,914
17,214524,"control","texture",1,1,1,805
18,214524,"control","texture",1,1,1,841
19,214524,"control","shape",0,0,1,1096
20,214524,"control","texture",0,0,1,863
21,214524,"control","shape",1,1,1,640
22,214524,"control","shape",0,0,1,871
23,214524,"control","texture",1,1,1,1008
24,214524,"relational","texture",1,0,0,1211
25,214524,"relational","texture",1,1,1,1032
26,214524,"relational","shape",0,1,0,1195
27,214524,"relational","texture",0,0,1,1358
1,221319,"relational","texture",1,0,0,2623
2,221319,"relational","texture",1,1,1,1778
3,221319,"relational","shape",1,1,1,2254
4,221319,"relational","texture",1,0,0,2380
5,221319,"control","shape",1,1,1,2414
6,221319,"control","texture",1,1,1,2427
7,221319,"control","shape",0,0,0,0
8,221319,"control","texture",0,0,1,2366
9,221319,"control","texture",1,1,1,2722
10,221319,"relational","shape",0,0,1,2329
11,221319,"relational","texture",1,0,0,3185
12,221319,"relational","texture",0,1,0,1636
13,221319,"relational","shape",0,0,1,2764
14,221319,"control","shape",1,1,1,2739
15,221319,"control","shape",0,0,1,1879
16,221319,"control","texture",0,0,1,1772
17,221319,"control","texture",1,1,1,1760
18,221319,"control","texture",0,1,0,2757
19,221319,"control","shape",1,0,0,1998
20,221319,"control","texture",0,0,1,1614
21,221319,"control","shape",0,1,0,1999
22,221319,"control","shape",1,0,0,2071
23,221319,"control","texture",1,1,1,2456
24,221319,"relational","texture",1,0,0,2291
25,221319,"relational","texture",0,1,0,2137
26,221319,"relational","shape",0,1,0,1722
27,221319,"relational","texture",1,0,0,3042
1,223929,"relational","texture",0,0,1,2701
2,223929,"relational","texture",1,1,1,1983
3,223929,"relational","shape",1,1,1,2159
4,223929,"relational","texture",0,0,1,1806
5,223929,"control","shape",1,1,1,1339
6,223929,"control","texture",1,1,1,1208
7,223929,"control","shape",0,0,1,1462
8,223929,"control","texture",0,0,1,1437
9,223929,"control","texture",1,1,1,1000
10,223929,"relational","shape",0,0,1,2450
11,223929,"relational","texture",0,0,1,3184
12,223929,"relational","texture",0,1,0,3474
13,223929,"relational","shape",0,0,1,3215
14,223929,"control","shape",1,1,1,1692
15,223929,"control","shape",0,0,1,1220
16,223929,"control","texture",0,0,1,1423
17,223929,"control","texture",1,1,1,1485
18,223929,"control","texture",1,1,1,1163
19,223929,"control","shape",0,0,1,1903
20,223929,"control","texture",0,0,1,1460
21,223929,"control","shape",1,1,1,928
22,223929,"control","shape",0,0,1,989
23,223929,"control","texture",1,1,1,2526
24,223929,"relational","texture",0,0,1,2395
25,223929,"relational","texture",1,1,1,2389
26,223929,"relational","shape",1,1,1,1590
27,223929,"relational","texture",0,0,1,2520
1,233326,"relational","texture",0,0,1,915
2,233326,"relational","texture",1,1,1,1037
3,233326,"relational","shape",1,1,1,1211
4,233326,"relational","texture",1,0,0,976
5,233326,"control","shape",0,1,0,1131
6,233326,"control","texture",1,1,1,1636
7,233326,"control","shape",0,0,1,1129
8,233326,"control","texture",0,0,1,1165
9,233326,"control","texture",1,1,1,2056
10,233326,"relational","shape",0,0,1,1478
11,233326,"relational","texture",0,0,1,2131
12,233326,"relational","texture",1,1,1,1292
13,233326,"relational","shape",0,0,1,1580
14,233326,"control","shape",1,1,1,1440
15,233326,"control","shape",0,0,1,1214
16,233326,"control","texture",0,0,1,1246
17,233326,"control","texture",1,1,1,1779
18,233326,"control","texture",1,1,1,1936
19,233326,"control","shape",0,0,1,1336
20,233326,"control","texture",0,0,1,1130
21,233326,"control","shape",1,1,1,971
22,233326,"control","shape",0,0,1,1568
23,233326,"control","texture",1,1,1,885
24,233326,"relational","texture",0,0,1,1180
25,233326,"relational","texture",0,1,0,1065
26,233326,"relational","shape",0,1,0,1163
27,233326,"relational","texture",0,0,1,1923
1,248339,"relational","texture",0,0,1,1722
2,248339,"relational","texture",1,1,1,2384
3,248339,"relational","shape",1,1,1,2612
4,248339,"relational","texture",0,0,1,1845
5,248339,"control","shape",0,1,0,1244
6,248339,"control","texture",1,1,1,1060
7,248339,"control","shape",0,0,1,1451
8,248339,"control","texture",0,0,1,1150
9,248339,"control","texture",1,1,1,1247
10,248339,"relational","shape",0,0,1,2346
11,248339,"relational","texture",0,0,1,2050
12,248339,"relational","texture",1,1,1,1528
13,248339,"relational","shape",0,0,1,2890
14,248339,"control","shape",1,1,1,1670
15,248339,"control","shape",0,0,1,1021
16,248339,"control","texture",0,0,1,1131
17,248339,"control","texture",1,1,1,1087
18,248339,"control","texture",1,1,1,1040
19,248339,"control","shape",0,0,1,1310
20,248339,"control","texture",0,0,1,1065
21,248339,"control","shape",1,1,1,822
22,248339,"control","shape",0,0,1,919
23,248339,"control","texture",1,1,1,946
24,248339,"relational","texture",0,0,1,2001
25,248339,"relational","texture",1,1,1,1878
26,248339,"relational","shape",0,1,0,2489
27,248339,"relational","texture",0,0,1,3209
1,250427,"relational","texture",0,0,1,2487
2,250427,"relational","texture",0,1,0,2692
3,250427,"relational","shape",1,1,1,2533
4,250427,"relational","texture",0,0,1,2492
5,250427,"control","shape",1,1,1,1398
6,250427,"control","texture",1,1,1,1545
7,250427,"control","shape",0,0,1,1565
8,250427,"control","texture",0,0,1,1636
9,250427,"control","texture",1,1,1,1485
10,250427,"relational","shape",0,0,1,2712
11,250427,"relational","texture",0,0,0,0
12,250427,"relational","texture",0,1,0,1907
13,250427,"relational","shape",0,0,1,2823
14,250427,"control","shape",1,1,1,1270
15,250427,"control","shape",0,0,1,1114
16,250427,"control","texture",0,0,1,1280
17,250427,"control","texture",1,1,1,1476
18,250427,"control","texture",1,1,1,2278
19,250427,"control","shape",0,0,1,1499
20,250427,"control","texture",0,0,1,1529
21,250427,"control","shape",1,1,1,1032
22,250427,"control","shape",0,0,1,1267
23,250427,"control","texture",0,1,0,1744
24,250427,"relational","texture",1,0,0,1826
25,250427,"relational","texture",0,1,0,2710
26,250427,"relational","shape",0,1,0,2662
27,250427,"relational","texture",0,0,1,2804
1,255639,"relational","texture",0,0,1,1941
2,255639,"relational","texture",1,1,1,1829
3,255639,"relational","shape",0,1,0,2285
4,255639,"relational","texture",0,0,1,2095
5,255639,"control","shape",1,1,1,2180
6,255639,"control","texture",1,1,1,1416
7,255639,"control","shape",0,0,1,1055
8,255639,"control","texture",0,0,1,1604
9,255639,"control","texture",1,1,1,1257
10,255639,"relational","shape",1,0,0,3179
11,255639,"relational","texture",0,0,1,3439
12,255639,"relational","texture",0,1,0,2349
13,255639,"relational","shape",0,0,0,0
14,255639,"control","shape",0,1,0,2090
15,255639,"control","shape",0,0,1,1457
16,255639,"control","texture",0,0,1,1850
17,255639,"control","texture",1,1,1,2136
18,255639,"control","texture",1,1,1,1491
19,255639,"control","shape",0,0,1,2136
20,255639,"control","texture",0,0,1,1820
21,255639,"control","shape",1,1,1,1125
22,255639,"control","shape",0,0,1,1139
23,255639,"control","texture",1,1,1,1680
24,255639,"relational","texture",0,0,1,2172
25,255639,"relational","texture",1,1,1,3045
26,255639,"relational","shape",1,1,1,2476
27,255639,"relational","texture",0,0,1,2333
1,257845,"relational","texture",0,0,1,1585
2,257845,"relational","texture",0,1,0,1917
3,257845,"relational","shape",1,1,1,1521
4,257845,"relational","texture",0,0,1,1467
5,257845,"control","shape",0,1,0,1736
6,257845,"control","texture",1,1,1,1679
7,257845,"control","shape",0,0,1,1568
8,257845,"control","texture",0,0,1,1621
9,257845,"control","texture",1,1,1,1521
10,257845,"relational","shape",0,0,1,1968
11,257845,"relational","texture",0,0,1,1680
12,257845,"relational","texture",0,1,0,2559
13,257845,"relational","shape",0,0,1,1711
14,257845,"control","shape",1,1,1,1518
15,257845,"control","shape",0,0,1,1349
16,257845,"control","texture",0,0,1,1585
17,257845,"control","texture",1,1,1,1636
18,257845,"control","texture",1,1,1,1200
19,257845,"control","shape",0,0,1,1119
20,257845,"control","texture",0,0,1,1027
21,257845,"control","shape",1,1,1,1088
22,257845,"control","shape",0,0,1,787
23,257845,"control","texture",1,1,1,919
24,257845,"relational","texture",0,0,1,1656
25,257845,"relational","texture",0,1,0,2039
26,257845,"relational","shape",1,1,1,1650
27,257845,"relational","texture",1,0,0,2041
1,283543,"relational","texture",0,0,1,1877
2,283543,"relational","texture",1,1,1,2074
3,283543,"relational","shape",1,1,1,1881
4,283543,"relational","texture",0,0,1,1638
5,283543,"control","shape",1,1,1,1374
6,283543,"control","texture",1,1,1,1416
7,283543,"control","shape",0,0,1,999
8,283543,"control","texture",0,0,1,1474
9,283543,"control","texture",1,1,1,1074
10,283543,"relational","shape",0,0,1,2437
11,283543,"relational","texture",0,0,1,1980
12,283543,"relational","texture",1,1,1,1962
13,283543,"relational","shape",0,0,1,1964
14,283543,"control","shape",1,1,1,1150
15,283543,"control","shape",0,0,1,1372
16,283543,"control","texture",0,0,1,1110
17,283543,"control","texture",1,1,1,1313
18,283543,"control","texture",1,1,1,1398
19,283543,"control","shape",0,0,1,1415
20,283543,"control","texture",0,0,1,1041
21,283543,"control","shape",1,1,1,1019
22,283543,"control","shape",0,0,1,1065
23,283543,"control","texture",0,1,0,1201
24,283543,"relational","texture",0,0,1,1928
25,283543,"relational","texture",1,1,1,2519
26,283543,"relational","shape",1,1,1,1856
27,283543,"relational","texture",0,0,1,2723
1,287248,"relational","texture",0,0,1,2426
2,287248,"relational","texture",0,1,0,2383
3,287248,"relational","shape",1,1,1,3399
4,287248,"relational","texture",0,0,1,3073
5,287248,"control","shape",1,1,1,2507
6,287248,"control","texture",1,1,1,2586
7,287248,"control","shape",0,0,1,2085
8,287248,"control","texture",0,0,1,1532
9,287248,"control","texture",1,1,1,1827
10,287248,"relational","shape",0,0,1,2670
11,287248,"relational","texture",0,0,1,2431
12,287248,"relational","texture",0,1,0,0
13,287248,"relational","shape",1,0,0,2465
14,287248,"control","shape",0,1,0,2399
15,287248,"control","shape",1,0,0,2401
16,287248,"control","texture",0,0,1,2713
17,287248,"control","texture",0,1,0,2434
18,287248,"control","texture",1,1,1,2112
19,287248,"control","shape",1,0,0,2042
20,287248,"control","texture",0,0,1,2504
21,287248,"control","shape",1,1,1,2352
22,287248,"control","shape",1,0,0,2400
23,287248,"control","texture",1,1,1,1619
24,287248,"relational","texture",0,0,1,3050
25,287248,"relational","texture",0,1,0,2808
26,287248,"relational","shape",0,1,0,2351
27,287248,"relational","texture",1,0,0,2388
1,293748,"relational","texture",0,0,1,2580
2,293748,"relational","texture",0,1,0,1634
3,293748,"relational","shape",1,1,1,1324
4,293748,"relational","texture",0,0,1,1652
5,293748,"control","shape",1,1,1,1178
6,293748,"control","texture",1,1,1,1000
7,293748,"control","shape",0,0,1,1046
8,293748,"control","texture",0,0,1,978
9,293748,"control","texture",1,1,1,910
10,293748,"relational","shape",0,0,1,1274
11,293748,"relational","texture",0,0,1,1654
12,293748,"relational","texture",0,1,0,1236
13,293748,"relational","shape",1,0,0,1708
14,293748,"control","shape",1,1,1,1055
15,293748,"control","shape",0,0,1,743
16,293748,"control","texture",0,0,1,1215
17,293748,"control","texture",1,1,1,940
18,293748,"control","texture",1,1,1,843
19,293748,"control","shape",0,0,1,1004
20,293748,"control","texture",0,0,1,990
21,293748,"control","shape",0,1,0,1189
22,293748,"control","shape",0,0,1,936
23,293748,"control","texture",1,1,1,1261
24,293748,"relational","texture",1,0,0,1784
25,293748,"relational","texture",0,1,0,1268
26,293748,"relational","shape",1,1,1,1127
27,293748,"relational","texture",0,0,1,1018
1,352738,"relational","texture",0,0,1,1851
2,352738,"relational","texture",1,1,1,1755
3,352738,"relational","shape",1,1,1,1183
4,352738,"relational","texture",0,0,1,1360
5,352738,"control","shape",1,1,1,1163
6,352738,"control","texture",1,1,1,1374
7,352738,"control","shape",1,0,0,1005
8,352738,"control","texture",0,0,1,1080
9,352738,"control","texture",1,1,1,1324
10,352738,"relational","shape",0,0,1,1780
11,352738,"relational","texture",0,0,1,2263
12,352738,"relational","texture",1,1,1,1999
13,352738,"relational","shape",0,0,1,1869
14,352738,"control","shape",1,1,1,1061
15,352738,"control","shape",0,0,1,1581
16,352738,"control","texture",0,0,1,1213
17,352738,"control","texture",1,1,1,1404
18,352738,"control","texture",0,1,0,1693
19,352738,"control","shape",0,0,1,1034
20,352738,"control","texture",0,0,1,1302
21,352738,"control","shape",1,1,1,1236
22,352738,"control","shape",0,0,1,953
23,352738,"control","texture",1,1,1,1544
24,352738,"relational","texture",0,0,1,1804
25,352738,"relational","texture",1,1,1,2119
26,352738,"relational","shape",0,1,0,1928
27,352738,"relational","texture",0,0,1,2178
1,353740,"relational","texture",0,0,1,1659
2,353740,"relational","texture",1,1,1,1413
3,353740,"relational","shape",1,1,1,1331
4,353740,"relational","texture",0,0,1,1555
5,353740,"control","shape",1,1,1,1035
6,353740,"control","texture",1,1,1,951
7,353740,"control","shape",0,0,1,847
8,353740,"control","texture",0,0,1,1063
9,353740,"control","texture",1,1,1,978
10,353740,"relational","shape",0,0,1,1795
11,353740,"relational","texture",0,0,1,1679
12,353740,"relational","texture",1,1,1,1326
13,353740,"relational","shape",0,0,1,1870
14,353740,"control","shape",1,1,1,1514
15,353740,"control","shape",0,0,1,1238
16,353740,"control","texture",0,0,1,1328
17,353740,"control","texture",1,1,1,1643
18,353740,"control","texture",1,1,1,1787
19,353740,"control","shape",0,0,1,1084
20,353740,"control","texture",0,0,1,1422
21,353740,"control","shape",1,1,1,789
22,353740,"control","shape",0,0,1,882
23,353740,"control","texture",1,1,1,1408
24,353740,"relational","texture",0,0,1,1628
25,353740,"relational","texture",1,1,1,1654
26,353740,"relational","shape",1,1,1,1493
27,353740,"relational","texture",0,0,1,1885
1,358144,"relational","texture",0,0,1,1887
2,358144,"relational","texture",1,1,1,1428
3,358144,"relational","shape",1,1,1,2134
4,358144,"relational","texture",0,0,1,1435
5,358144,"control","shape",1,1,1,1261
6,358144,"control","texture",0,1,0,925
7,358144,"control","shape",0,0,1,1111
8,358144,"control","texture",0,0,1,1320
9,358144,"control","texture",1,1,1,1647
10,358144,"relational","shape",0,0,1,1457
11,358144,"relational","texture",0,0,1,2007
12,358144,"relational","texture",1,1,1,1677
13,358144,"relational","shape",0,0,1,2229
14,358144,"control","shape",0,1,0,1389
15,358144,"control","shape",0,0,1,1011
16,358144,"control","texture",0,0,1,1398
17,358144,"control","texture",1,1,1,1872
18,358144,"control","texture",1,1,1,1537
19,358144,"control","shape",0,0,1,1858
20,358144,"control","texture",0,0,1,1355
21,358144,"control","shape",1,1,1,1679
22,358144,"control","shape",0,0,1,1175
23,358144,"control","texture",1,1,1,1614
24,358144,"relational","texture",0,0,1,1881
25,358144,"relational","texture",1,1,1,1767
26,358144,"relational","shape",1,1,1,797
27,358144,"relational","texture",0,0,1,1215
1,406836,"relational","texture",1,0,0,710
2,406836,"relational","texture",1,1,1,780
3,406836,"relational","shape",1,1,1,1559
4,406836,"relational","texture",1,0,0,828
5,406836,"control","shape",1,1,1,1457
6,406836,"control","texture",1,1,1,1142
7,406836,"control","shape",0,0,1,673
8,406836,"control","texture",0,0,1,1132
9,406836,"control","texture",1,1,1,943
10,406836,"relational","shape",0,0,1,1654
11,406836,"relational","texture",0,0,1,1401
12,406836,"relational","texture",0,1,0,1503
13,406836,"relational","shape",0,0,1,1285
14,406836,"control","shape",1,1,1,798
15,406836,"control","shape",0,0,1,1123
16,406836,"control","texture",0,0,1,1544
17,406836,"control","texture",1,1,1,1306
18,406836,"control","texture",1,1,1,962
19,406836,"control","shape",0,0,1,1515
20,406836,"control","texture",0,0,1,1040
21,406836,"control","shape",1,1,1,757
22,406836,"control","shape",0,0,1,1002
23,406836,"control","texture",1,1,1,995
24,406836,"relational","texture",0,0,1,1124
25,406836,"relational","texture",1,1,1,1678
26,406836,"relational","shape",0,1,0,1196
27,406836,"relational","texture",0,0,1,1751
1,433839,"relational","texture",0,0,1,1775
2,433839,"relational","texture",1,1,1,1244
3,433839,"relational","shape",1,1,1,1571
4,433839,"relational","texture",1,0,0,1248
5,433839,"control","shape",1,1,1,1318
6,433839,"control","texture",1,1,1,1408
7,433839,"control","shape",0,0,1,1233
8,433839,"control","texture",0,0,1,1352
9,433839,"control","texture",1,1,1,1141
10,433839,"relational","shape",0,0,1,2366
11,433839,"relational","texture",0,0,1,2026
12,433839,"relational","texture",0,1,0,1855
13,433839,"relational","shape",0,0,1,2357
14,433839,"control","shape",1,1,1,1310
15,433839,"control","shape",0,0,1,1434
16,433839,"control","texture",0,0,1,1751
17,433839,"control","texture",1,1,1,1867
18,433839,"control","texture",1,1,1,1404
19,433839,"control","shape",0,0,1,2353
20,433839,"control","texture",0,0,1,1197
21,433839,"control","shape",1,1,1,1199
22,433839,"control","shape",0,0,1,1228
23,433839,"control","texture",1,1,1,1635
24,433839,"relational","texture",0,0,1,1839
25,433839,"relational","texture",0,1,0,1978
26,433839,"relational","shape",0,1,0,1447
27,433839,"relational","texture",0,0,1,2113
1,500222,"relational","texture",0,0,1,1540
2,500222,"relational","texture",1,1,1,1634
3,500222,"relational","shape",1,1,1,1498
4,500222,"relational","texture",0,0,1,1592
5,500222,"control","shape",1,1,1,1247
6,500222,"control","texture",1,1,1,1440
7,500222,"control","shape",0,0,1,1031
8,500222,"control","texture",0,0,1,1271
9,500222,"control","texture",1,1,1,1078
10,500222,"relational","shape",0,0,1,1642
11,500222,"relational","texture",1,0,0,1578
12,500222,"relational","texture",1,1,1,1456
13,500222,"relational","shape",0,0,1,1693
14,500222,"control","shape",1,1,1,1663
15,500222,"control","shape",0,0,1,932
16,500222,"control","texture",0,0,1,1504
17,500222,"control","texture",1,1,1,1629
18,500222,"control","texture",1,1,1,1359
19,500222,"control","shape",0,0,1,1184
20,500222,"control","texture",0,0,1,1322
21,500222,"control","shape",1,1,1,875
22,500222,"control","shape",0,0,1,947
23,500222,"control","texture",1,1,1,1616
24,500222,"relational","texture",0,0,1,1816
25,500222,"relational","texture",1,1,1,1555
26,500222,"relational","shape",1,1,1,1449
27,500222,"relational","texture",0,0,1,1924
1,512835,"relational","texture",0,0,1,1728
2,512835,"relational","texture",0,1,0,1534
3,512835,"relational","shape",1,1,1,1778
4,512835,"relational","texture",0,0,1,1887
5,512835,"control","shape",1,1,1,1337
6,512835,"control","texture",1,1,1,1174
7,512835,"control","shape",1,0,0,1598
8,512835,"control","texture",0,0,1,1732
9,512835,"control","texture",1,1,1,1429
10,512835,"relational","shape",0,0,1,1830
11,512835,"relational","texture",1,0,0,2535
12,512835,"relational","texture",0,1,0,2322
13,512835,"relational","shape",0,0,1,2039
14,512835,"control","shape",0,1,0,1818
15,512835,"control","shape",0,0,1,1737
16,512835,"control","texture",0,0,1,1494
17,512835,"control","texture",1,1,1,1149
18,512835,"control","texture",0,1,0,1557
19,512835,"control","shape",0,0,1,1463
20,512835,"control","texture",0,0,1,1389
21,512835,"control","shape",1,1,1,1261
22,512835,"control","shape",0,0,1,1270
23,512835,"control","texture",1,1,1,1618
24,512835,"relational","texture",0,0,1,2367
25,512835,"relational","texture",0,1,0,1879
26,512835,"relational","shape",1,1,1,1943
27,512835,"relational","texture",1,0,0,2230
1,555348,"relational","texture",1,0,0,2015
2,555348,"relational","texture",1,1,1,1494
3,555348,"relational","shape",0,1,0,1249
4,555348,"relational","texture",1,0,0,1373
5,555348,"control","shape",1,1,1,975
6,555348,"control","texture",1,1,1,1360
7,555348,"control","shape",0,0,1,1039
8,555348,"control","texture",1,0,0,1724
9,555348,"control","texture",1,1,1,1152
10,555348,"relational","shape",0,0,1,1223
11,555348,"relational","texture",0,0,1,1423
12,555348,"relational","texture",1,1,1,1300
13,555348,"relational","shape",1,0,0,1098
14,555348,"control","shape",1,1,1,899
15,555348,"control","shape",0,0,1,1007
16,555348,"control","texture",1,0,0,1150
17,555348,"control","texture",1,1,1,1633
18,555348,"control","texture",1,1,1,1198
19,555348,"control","shape",0,0,1,1233
20,555348,"control","texture",0,0,1,1156
21,555348,"control","shape",1,1,1,886
22,555348,"control","shape",0,0,1,1105
23,555348,"control","texture",0,1,0,1224
24,555348,"relational","texture",1,0,0,1848
25,555348,"relational","texture",0,1,0,1631
26,555348,"relational","shape",1,1,1,1234
27,555348,"relational","texture",1,0,0,1208
1,559053,"relational","texture",0,0,1,3453
2,559053,"relational","texture",0,1,0,3122
3,559053,"relational","shape",1,1,1,2484
4,559053,"relational","texture",0,0,0,0
5,559053,"control","shape",1,1,1,2256
6,559053,"control","texture",1,1,1,2014
7,559053,"control","shape",0,0,1,2124
8,559053,"control","texture",1,0,0,1471
9,559053,"control","texture",1,1,1,1133
10,559053,"relational","shape",0,0,1,3141
11,559053,"relational","texture",1,0,0,2631
12,559053,"relational","texture",0,1,0,2325
13,559053,"relational","shape",0,0,1,3319
14,559053,"control","shape",1,1,1,1593
15,559053,"control","shape",1,0,0,1998
16,559053,"control","texture",1,0,0,1298
17,559053,"control","texture",0,1,0,0
18,559053,"control","texture",0,1,0,1762
19,559053,"control","shape",0,0,0,0
20,559053,"control","texture",0,0,1,1957
21,559053,"control","shape",1,1,1,1655
22,559053,"control","shape",0,0,1,1303
23,559053,"control","texture",1,1,1,1644
24,559053,"relational","texture",0,0,1,2621
25,559053,"relational","texture",1,1,1,2299
26,559053,"relational","shape",0,1,0,1941
27,559053,"relational","texture",0,0,1,3001
1,568963,"relational","texture",1,0,0,1571
2,568963,"relational","texture",1,1,1,1768
3,568963,"relational","shape",1,1,1,1780
4,568963,"relational","texture",0,0,1,1736
5,568963,"control","shape",1,1,1,1493
6,568963,"control","texture",1,1,1,1197
7,568963,"control","shape",0,0,1,930
8,568963,"control","texture",0,0,1,1168
9,568963,"control","texture",1,1,1,1407
10,568963,"relational","shape",0,0,1,2244
11,568963,"relational","texture",0,0,1,1988
12,568963,"relational","texture",0,1,0,1631
13,568963,"relational","shape",0,0,1,1894
14,568963,"control","shape",1,1,1,1197
15,568963,"control","shape",0,0,1,952
16,568963,"control","texture",0,0,1,936
17,568963,"control","texture",1,1,1,1309
18,568963,"control","texture",1,1,1,1032
19,568963,"control","shape",0,0,1,1086
20,568963,"control","texture",0,0,1,1097
21,568963,"control","shape",1,1,1,1004
22,568963,"control","shape",0,0,1,1186
23,568963,"control","texture",1,1,1,1180
24,568963,"relational","texture",0,0,1,1484
25,568963,"relational","texture",0,1,0,2133
26,568963,"relational","shape",0,1,0,2405
27,568963,"relational","texture",0,0,1,1971
1,581450,"relational","texture",0,0,1,1577
2,581450,"relational","texture",1,1,1,1537
3,581450,"relational","shape",1,1,1,1294
4,581450,"relational","texture",0,0,1,1504
5,581450,"control","shape",1,1,1,1306
6,581450,"control","texture",0,1,0,1088
7,581450,"control","shape",0,0,1,1126
8,581450,"control","texture",0,0,1,1300
9,581450,"control","texture",1,1,1,853
10,581450,"relational","shape",0,0,1,2275
11,581450,"relational","texture",0,0,1,2944
12,581450,"relational","texture",1,1,1,1913
13,581450,"relational","shape",0,0,1,2084
14,581450,"control","shape",1,1,1,1057
15,581450,"control","shape",0,0,1,957
16,581450,"control","texture",0,0,1,995
17,581450,"control","texture",1,1,1,921
18,581450,"control","texture",1,1,1,874
19,581450,"control","shape",0,0,1,996
20,581450,"control","texture",0,0,1,933
21,581450,"control","shape",1,1,1,760
22,581450,"control","shape",0,0,1,892
23,581450,"control","texture",1,1,1,779
24,581450,"relational","texture",0,0,1,1380
25,581450,"relational","texture",1,1,1,1697
26,581450,"relational","shape",0,1,0,1318
27,581450,"relational","texture",0,0,1,2000
1,599671,"relational","texture",0,0,1,1861
2,599671,"relational","texture",1,1,1,1926
3,599671,"relational","shape",1,1,1,2218
4,599671,"relational","texture",0,0,1,1681
5,599671,"control","shape",1,1,1,1097
6,599671,"control","texture",1,1,1,1322
7,599671,"control","shape",0,0,1,1015
8,599671,"control","texture",0,0,1,1087
9,599671,"control","texture",1,1,1,1295
10,599671,"relational","shape",0,0,1,2374
11,599671,"relational","texture",0,0,1,1692
12,599671,"relational","texture",0,1,0,1557
13,599671,"relational","shape",1,0,0,1271
14,599671,"control","shape",1,1,1,1313
15,599671,"control","shape",0,0,1,1172
16,599671,"control","texture",0,0,1,1136
17,599671,"control","texture",1,1,1,1010
18,599671,"control","texture",1,1,1,1036
19,599671,"control","shape",0,0,1,1011
20,599671,"control","texture",0,0,1,1080
21,599671,"control","shape",1,1,1,1072
22,599671,"control","shape",0,0,1,894
23,599671,"control","texture",1,1,1,1179
24,599671,"relational","texture",0,0,1,2435
25,599671,"relational","texture",0,1,0,1463
26,599671,"relational","shape",0,1,0,1451
27,599671,"relational","texture",0,0,1,1728
1,601127,"relational","texture",0,0,1,1994
2,601127,"relational","texture",1,1,1,2288
3,601127,"relational","shape",1,1,1,1851
4,601127,"relational","texture",0,0,1,2102
5,601127,"control","shape",1,1,1,1547
6,601127,"control","texture",1,1,1,1636
7,601127,"control","shape",0,0,1,1161
8,601127,"control","texture",0,0,1,1652
9,601127,"control","texture",1,1,1,1082
10,601127,"relational","shape",0,0,1,2677
11,601127,"relational","texture",0,0,1,2787
12,601127,"relational","texture",1,1,1,2339
13,601127,"relational","shape",0,0,0,0
14,601127,"control","shape",1,1,1,1386
15,601127,"control","shape",0,0,1,829
16,601127,"control","texture",0,0,1,2219
17,601127,"control","texture",1,1,1,2768
18,601127,"control","texture",1,1,1,1309
19,601127,"control","shape",0,0,1,1613
20,601127,"control","texture",0,0,1,1549
21,601127,"control","shape",1,1,1,685
22,601127,"control","shape",0,0,1,1335
23,601127,"control","texture",1,1,1,2421
24,601127,"relational","texture",0,0,1,1902
25,601127,"relational","texture",1,1,1,1801
26,601127,"relational","shape",1,1,1,2099
27,601127,"relational","texture",0,0,1,2771
1,660951,"relational","texture",1,0,0,1537
2,660951,"relational","texture",1,1,1,1173
3,660951,"relational","shape",0,1,0,1090
4,660951,"relational","texture",1,0,0,1389
5,660951,"control","shape",1,1,1,2035
6,660951,"control","texture",0,1,0,2075
7,660951,"control","shape",0,0,1,2094
8,660951,"control","texture",0,0,1,1590
9,660951,"control","texture",1,1,1,1357
10,660951,"relational","shape",0,0,1,2222
11,660951,"relational","texture",1,0,0,2985
12,660951,"relational","texture",0,1,0,2556
13,660951,"relational","shape",0,0,1,2615
14,660951,"control","shape",0,1,0,1188
15,660951,"control","shape",1,0,0,1244
16,660951,"control","texture",0,0,1,2789
17,660951,"control","texture",1,1,1,2092
18,660951,"control","texture",1,1,1,1381
19,660951,"control","shape",0,0,1,1788
20,660951,"control","texture",0,0,1,1702
21,660951,"control","shape",0,1,0,1769
22,660951,"control","shape",1,0,0,1816
23,660951,"control","texture",1,1,1,2140
24,660951,"relational","texture",0,0,1,2141
25,660951,"relational","texture",0,1,0,2086
26,660951,"relational","shape",0,1,0,2314
27,660951,"relational","texture",1,0,0,1996
1,662551,"relational","texture",0,0,1,2891
2,662551,"relational","texture",0,1,0,0
3,662551,"relational","shape",0,1,0,2617
4,662551,"relational","texture",0,0,1,3250
5,662551,"control","shape",1,1,1,2384
6,662551,"control","texture",1,1,1,2328
7,662551,"control","shape",0,0,1,1873
8,662551,"control","texture",1,0,0,1379
9,662551,"control","texture",1,1,1,2429
10,662551,"relational","shape",0,0,1,2510
11,662551,"relational","texture",1,0,0,2955
12,662551,"relational","texture",0,1,0,3029
13,662551,"relational","shape",1,0,0,2203
14,662551,"control","shape",1,1,1,2552
15,662551,"control","shape",0,0,1,2012
16,662551,"control","texture",0,0,1,1567
17,662551,"control","texture",1,1,1,2484
18,662551,"control","texture",1,1,1,1533
19,662551,"control","shape",1,0,0,2677
20,662551,"control","texture",0,0,1,2634
21,662551,"control","shape",1,1,1,2086
22,662551,"control","shape",0,0,1,1771
23,662551,"control","texture",1,1,1,1392
24,662551,"relational","texture",0,0,1,3442
25,662551,"relational","texture",1,1,1,2624
26,662551,"relational","shape",0,1,0,3054
27,662551,"relational","texture",1,0,0,2082
1,665254,"relational","texture",1,0,0,1326
2,665254,"relational","texture",1,1,1,1120
3,665254,"relational","shape",1,1,1,1203
4,665254,"relational","texture",1,0,0,1496
5,665254,"control","shape",1,1,1,1012
6,665254,"control","texture",1,1,1,1288
7,665254,"control","shape",0,0,1,831
8,665254,"control","texture",0,0,1,1407
9,665254,"control","texture",1,1,1,934
10,665254,"relational","shape",0,0,1,1215
11,665254,"relational","texture",0,0,1,2131
12,665254,"relational","texture",0,1,0,1795
13,665254,"relational","shape",0,0,1,1822
14,665254,"control","shape",1,1,1,739
15,665254,"control","shape",0,0,1,935
16,665254,"control","texture",0,0,1,1146
17,665254,"control","texture",0,1,0,1349
18,665254,"control","texture",1,1,1,1115
19,665254,"control","shape",0,0,1,1234
20,665254,"control","texture",0,0,1,1279
21,665254,"control","shape",1,1,1,971
22,665254,"control","shape",0,0,1,1042
23,665254,"control","texture",1,1,1,1089
24,665254,"relational","texture",0,0,1,1436
25,665254,"relational","texture",1,1,1,1950
26,665254,"relational","shape",0,1,0,1173
27,665254,"relational","texture",1,0,0,2037
1,667056,"relational","texture",0,0,1,2258
2,667056,"relational","texture",1,1,1,1447
3,667056,"relational","shape",1,1,1,2208
4,667056,"relational","texture",0,0,1,1532
5,667056,"control","shape",0,1,0,1189
6,667056,"control","texture",1,1,1,1284
7,667056,"control","shape",0,0,1,1085
8,667056,"control","texture",0,0,1,1159
9,667056,"control","texture",1,1,1,1023
10,667056,"relational","shape",0,0,1,2305
11,667056,"relational","texture",1,0,0,2617
12,667056,"relational","texture",1,1,1,1539
13,667056,"relational","shape",0,0,1,1862
14,667056,"control","shape",0,1,0,1064
15,667056,"control","shape",0,0,1,1115
16,667056,"control","texture",0,0,1,1272
17,667056,"control","texture",1,1,1,1090
18,667056,"control","texture",1,1,1,938
19,667056,"control","shape",0,0,1,1227
20,667056,"control","texture",0,0,1,1064
21,667056,"control","shape",1,1,1,970
22,667056,"control","shape",0,0,1,854
23,667056,"control","texture",1,1,1,1290
24,667056,"relational","texture",0,0,1,1682
25,667056,"relational","texture",1,1,1,1282
26,667056,"relational","shape",0,1,0,1314
27,667056,"relational","texture",1,0,0,1636
1,680957,"relational","texture",0,0,0,0
2,680957,"relational","texture",0,1,0,218
3,680957,"relational","shape",1,1,1,3400
4,680957,"relational","texture",0,0,0,0
5,680957,"control","shape",0,1,0,2039
6,680957,"control","texture",1,1,1,1708
7,680957,"control","shape",0,0,1,1659
8,680957,"control","texture",0,0,1,1993
9,680957,"control","texture",1,1,1,1577
10,680957,"relational","shape",0,0,1,3416
11,680957,"relational","texture",0,0,0,0
12,680957,"relational","texture",0,1,0,0
13,680957,"relational","shape",0,0,0,0
14,680957,"control","shape",1,1,1,2120
15,680957,"control","shape",0,0,1,1497
16,680957,"control","texture",0,0,1,1665
17,680957,"control","texture",1,1,1,2319
18,680957,"control","texture",1,1,1,1773
19,680957,"control","shape",0,0,1,2753
20,680957,"control","texture",0,0,0,0
21,680957,"control","shape",1,1,1,1259
22,680957,"control","shape",0,0,0,0
23,680957,"control","texture",1,1,1,1868
24,680957,"relational","texture",0,0,1,2522
25,680957,"relational","texture",0,1,0,3264
26,680957,"relational","shape",0,1,0,0
27,680957,"relational","texture",0,0,1,2540
1,707749,"relational","texture",1,0,0,1551
2,707749,"relational","texture",0,1,0,1687
3,707749,"relational","shape",1,1,1,1546
4,707749,"relational","texture",0,0,1,1322
5,707749,"control","shape",0,1,0,1564
6,707749,"control","texture",1,1,1,1091
7,707749,"control","shape",0,0,1,1494
8,707749,"control","texture",0,0,1,1540
9,707749,"control","texture",1,1,1,1056
10,707749,"relational","shape",0,0,1,3061
11,707749,"relational","texture",1,0,0,2037
12,707749,"relational","texture",1,1,1,2252
13,707749,"relational","shape",1,0,0,2455
14,707749,"control","shape",0,1,0,0
15,707749,"control","shape",0,0,0,0
16,707749,"control","texture",0,0,1,1777
17,707749,"control","texture",1,1,1,1645
18,707749,"control","texture",1,1,1,1669
19,707749,"control","shape",0,0,1,2070
20,707749,"control","texture",0,0,1,1817
21,707749,"control","shape",1,1,1,1420
22,707749,"control","shape",0,0,1,1554
23,707749,"control","texture",0,1,0,1621
24,707749,"relational","texture",0,0,1,2125
25,707749,"relational","texture",1,1,1,1825
26,707749,"relational","shape",1,1,1,1656
27,707749,"relational","texture",1,0,0,2474
1,715950,"relational","texture",0,0,0,0
2,715950,"relational","texture",1,1,1,2266
3,715950,"relational","shape",0,1,0,2463
4,715950,"relational","texture",0,0,1,1798
5,715950,"control","shape",1,1,1,1585
6,715950,"control","texture",0,1,0,1132
7,715950,"control","shape",0,0,1,1274
8,715950,"control","texture",0,0,1,1560
9,715950,"control","texture",1,1,1,1863
10,715950,"relational","shape",0,0,0,0
11,715950,"relational","texture",0,0,0,0
12,715950,"relational","texture",1,1,1,2758
13,715950,"relational","shape",0,0,0,0
14,715950,"control","shape",1,1,1,1483
15,715950,"control","shape",0,0,1,1298
16,715950,"control","texture",0,0,1,1381
17,715950,"control","texture",1,1,1,1631
18,715950,"control","texture",1,1,1,1638
19,715950,"control","shape",0,0,1,2193
20,715950,"control","texture",0,0,1,1230
21,715950,"control","shape",1,1,1,1150
22,715950,"control","shape",0,0,1,2032
23,715950,"control","texture",1,1,1,1321
24,715950,"relational","texture",0,0,1,2553
25,715950,"relational","texture",0,1,0,2960
26,715950,"relational","shape",1,1,1,2323
27,715950,"relational","texture",0,0,1,3000
1,725751,"relational","texture",0,0,1,1388
2,725751,"relational","texture",1,1,1,1397
3,725751,"relational","shape",0,1,0,1370
4,725751,"relational","texture",1,0,0,1116
5,725751,"control","shape",0,1,0,1159
6,725751,"control","texture",1,1,1,1350
7,725751,"control","shape",0,0,1,1138
8,725751,"control","texture",0,0,1,1383
9,725751,"control","texture",1,1,1,1038
10,725751,"relational","shape",0,0,1,1436
11,725751,"relational","texture",1,0,0,1347
12,725751,"relational","texture",0,1,0,1113
13,725751,"relational","shape",0,0,1,1433
14,725751,"control","shape",1,1,1,1221
15,725751,"control","shape",0,0,1,1475
16,725751,"control","texture",1,0,0,1148
17,725751,"control","texture",0,1,0,1917
18,725751,"control","texture",0,1,0,2155
19,725751,"control","shape",0,0,1,2395
20,725751,"control","texture",0,0,1,1556
21,725751,"control","shape",1,1,1,1163
22,725751,"control","shape",0,0,1,2146
23,725751,"control","texture",1,1,1,1760
24,725751,"relational","texture",0,0,1,1773
25,725751,"relational","texture",1,1,1,1934
26,725751,"relational","shape",1,1,1,2395
27,725751,"relational","texture",0,0,1,1426
1,735148,"relational","texture",1,0,0,2329
2,735148,"relational","shape",0,0,1,2566
3,735148,"relational","texture",0,1,0,2669
4,735148,"relational","shape",1,1,1,1871
5,735148,"control","shape",0,1,0,1118
6,735148,"control","shape",0,0,1,1860
7,735148,"control","texture",0,0,1,2679
8,735148,"control","texture",1,1,1,1178
9,735148,"control","shape",0,1,0,1028
10,735148,"control","texture",0,0,0,0
11,735148,"control","shape",1,1,1,788
12,735148,"control","texture",0,1,0,1312
13,735148,"control","shape",0,0,0,0
14,735148,"control","shape",1,1,1,708
15,735148,"relational","shape",1,1,1,1986
16,735148,"relational","shape",1,0,0,1141
17,735148,"relational","texture",0,0,1,2485
18,735148,"relational","texture",0,1,0,1877
19,735148,"relational","shape",1,1,1,1200
20,735148,"relational","texture",0,0,1,2524
21,735148,"relational","shape",1,1,1,2371
22,735148,"relational","texture",0,0,1,2453
23,735148,"control","texture",1,0,0,2714
24,735148,"control","texture",0,0,0,0
25,735148,"control","shape",0,0,0,0
26,735148,"control","texture",0,1,0,1047
27,735148,"control","shape",0,1,0,888
1,783462,"relational","texture",0,0,1,2055
2,783462,"relational","texture",1,1,1,2138
3,783462,"relational","shape",0,1,0,2066
4,783462,"relational","texture",0,0,1,2522
5,783462,"control","shape",1,1,1,1675
6,783462,"control","texture",1,1,1,1482
7,783462,"control","shape",0,0,1,1744
8,783462,"control","texture",0,0,1,2104
9,783462,"control","texture",1,1,1,1576
10,783462,"relational","shape",0,0,1,2272
11,783462,"relational","texture",0,0,1,1788
12,783462,"relational","texture",1,1,1,1871
13,783462,"relational","shape",0,0,1,2300
14,783462,"control","shape",1,1,1,1598
15,783462,"control","shape",0,0,1,1034
16,783462,"control","texture",0,0,1,1572
17,783462,"control","texture",1,1,1,2005
18,783462,"control","texture",1,1,1,1567
19,783462,"control","shape",0,0,1,1350
20,783462,"control","texture",0,0,1,1564
21,783462,"control","shape",1,1,1,1462
22,783462,"control","shape",0,0,1,1017
23,783462,"control","texture",1,1,1,1529
24,783462,"relational","texture",0,0,1,1576
25,783462,"relational","texture",1,1,1,2374
26,783462,"relational","shape",1,1,1,1606
27,783462,"relational","texture",0,0,1,2032
1,814649,"relational","texture",1,0,0,839
2,814649,"relational","texture",1,1,1,896
3,814649,"relational","shape",1,1,1,1262
4,814649,"relational","texture",1,0,0,1107
5,814649,"control","shape",1,1,1,1456
6,814649,"control","texture",0,1,0,1061
7,814649,"control","shape",0,0,1,1438
8,814649,"control","texture",0,0,1,1436
9,814649,"control","texture",1,1,1,832
10,814649,"relational","shape",0,0,1,2497
11,814649,"relational","texture",0,0,1,2705
12,814649,"relational","texture",0,1,0,2357
13,814649,"relational","shape",0,0,1,2339
14,814649,"control","shape",1,1,1,1082
15,814649,"control","shape",0,0,1,1321
16,814649,"control","texture",0,0,1,1908
17,814649,"control","texture",1,1,1,1927
18,814649,"control","texture",1,1,1,1484
19,814649,"control","shape",0,0,1,1766
20,814649,"control","texture",0,0,1,1623
21,814649,"control","shape",1,1,1,2654
22,814649,"control","shape",0,0,1,2103
23,814649,"control","texture",1,1,1,1956
24,814649,"relational","texture",0,0,1,2567
25,814649,"relational","texture",0,1,0,2175
26,814649,"relational","shape",0,1,0,1782
27,814649,"relational","texture",0,0,1,2977
1,825048,"relational","texture",0,0,1,3129
2,825048,"relational","texture",1,1,1,2685
3,825048,"relational","shape",1,1,1,2538
4,825048,"relational","texture",0,0,1,1547
5,825048,"control","shape",1,1,1,1430
6,825048,"control","texture",0,1,0,1107
7,825048,"control","shape",0,0,1,1348
8,825048,"control","texture",0,0,1,1412
9,825048,"control","texture",1,1,1,1050
10,825048,"relational","shape",1,0,0,2512
11,825048,"relational","texture",0,0,1,1683
12,825048,"relational","texture",1,1,1,1189
13,825048,"relational","shape",0,0,1,1957
14,825048,"control","shape",1,1,1,1321
15,825048,"control","shape",0,0,1,1609
16,825048,"control","texture",0,0,1,1802
17,825048,"control","texture",0,1,0,2620
18,825048,"control","texture",1,1,1,1531
19,825048,"control","shape",0,0,0,0
20,825048,"control","texture",0,0,1,1746
21,825048,"control","shape",1,1,1,1006
22,825048,"control","shape",0,0,1,1057
23,825048,"control","texture",1,1,1,1808
24,825048,"relational","texture",0,0,1,2735
25,825048,"relational","texture",1,1,1,1712
26,825048,"relational","shape",1,1,1,1889
27,825048,"relational","texture",0,0,1,2135
1,872764,"relational","texture",0,0,1,1887
2,872764,"relational","texture",1,1,1,1681
3,872764,"relational","shape",1,1,1,2039
4,872764,"relational","texture",0,0,1,1765
5,872764,"control","shape",1,1,1,1530
6,872764,"control","texture",1,1,1,1280
7,872764,"control","shape",0,0,1,1455
8,872764,"control","texture",0,0,1,1775
9,872764,"control","texture",1,1,1,1309
10,872764,"relational","shape",0,0,1,2216
11,872764,"relational","texture",0,0,1,2139
12,872764,"relational","texture",1,1,1,2291
13,872764,"relational","shape",0,0,1,1963
14,872764,"control","shape",1,1,1,1701
15,872764,"control","shape",0,0,1,1876
16,872764,"control","texture",0,0,1,1303
17,872764,"control","texture",1,1,1,1682
18,872764,"control","texture",1,1,1,1365
19,872764,"control","shape",0,0,1,1498
20,872764,"control","texture",0,0,1,1240
21,872764,"control","shape",1,1,1,1047
22,872764,"control","shape",0,0,1,966
23,872764,"control","texture",1,1,1,1331
24,872764,"relational","texture",0,0,1,1942
25,872764,"relational","texture",1,1,1,2095
26,872764,"relational","shape",1,1,1,2057
27,872764,"relational","texture",0,0,1,2556
1,877168,"relational","texture",0,0,1,2070
2,877168,"relational","texture",1,1,1,2667
3,877168,"relational","shape",1,1,1,2888
4,877168,"relational","texture",0,0,1,2224
5,877168,"control","shape",0,1,0,1266
6,877168,"control","texture",1,1,1,2051
7,877168,"control","shape",0,0,1,1958
8,877168,"control","texture",0,0,1,1924
9,877168,"control","texture",1,1,1,1899
10,877168,"relational","shape",0,0,1,1962
11,877168,"relational","texture",0,0,1,2249
12,877168,"relational","texture",1,1,1,2885
13,877168,"relational","shape",0,0,1,3112
14,877168,"control","shape",0,1,0,1797
15,877168,"control","shape",0,0,0,0
16,877168,"control","texture",0,0,1,2525
17,877168,"control","texture",1,1,1,1477
18,877168,"control","texture",1,1,1,2124
19,877168,"control","shape",0,0,1,1440
20,877168,"control","texture",0,0,1,1445
21,877168,"control","shape",1,1,1,1061
22,877168,"control","shape",0,0,1,1268
23,877168,"control","texture",1,1,1,1723
24,877168,"relational","texture",0,0,1,2545
25,877168,"relational","texture",1,1,1,1991
26,877168,"relational","shape",0,1,0,2265
27,877168,"relational","texture",1,0,0,2250
1,891667,"relational","texture",1,0,0,569
2,891667,"relational","texture",1,1,1,720
3,891667,"relational","shape",0,1,0,749
4,891667,"relational","texture",1,0,0,658
5,891667,"control","shape",1,1,1,668
6,891667,"control","texture",0,1,0,919
7,891667,"control","shape",0,0,1,739
8,891667,"control","texture",1,0,0,682
9,891667,"control","texture",1,1,1,698
10,891667,"relational","shape",0,0,1,958
11,891667,"relational","texture",0,0,1,852
12,891667,"relational","texture",0,1,0,914
13,891667,"relational","shape",1,0,0,785
14,891667,"control","shape",1,1,1,993
15,891667,"control","shape",0,0,1,1029
16,891667,"control","texture",0,0,1,1034
17,891667,"control","texture",1,1,1,909
18,891667,"control","texture",0,1,0,968
19,891667,"control","shape",0,0,1,1352
20,891667,"control","texture",0,0,1,1089
21,891667,"control","shape",1,1,1,833
22,891667,"control","shape",0,0,1,798
23,891667,"control","texture",0,1,0,1031
24,891667,"relational","texture",0,0,1,1106
25,891667,"relational","texture",0,1,0,1327
26,891667,"relational","shape",1,1,1,913
27,891667,"relational","texture",0,0,1,1069
1,898176,"relational","texture",1,0,0,2230
2,898176,"relational","texture",1,1,1,2641
3,898176,"relational","shape",0,1,0,1985
4,898176,"relational","texture",0,0,1,3334
5,898176,"control","shape",1,1,1,1536
6,898176,"control","texture",0,1,0,1963
7,898176,"control","shape",0,0,1,2201
8,898176,"control","texture",0,0,1,1606
9,898176,"control","texture",1,1,1,1590
10,898176,"relational","shape",0,0,1,2190
11,898176,"relational","texture",0,0,0,0
12,898176,"relational","texture",0,1,0,2165
13,898176,"relational","shape",0,0,1,2467
14,898176,"control","shape",1,1,1,1563
15,898176,"control","shape",0,0,1,1164
16,898176,"control","texture",1,0,0,1133
17,898176,"control","texture",1,1,1,1581
18,898176,"control","texture",1,1,1,1710
19,898176,"control","shape",0,0,1,1729
20,898176,"control","texture",0,0,1,1684
21,898176,"control","shape",1,1,1,1240
22,898176,"control","shape",0,0,1,1486
23,898176,"control","texture",0,1,0,1397
24,898176,"relational","texture",1,0,0,1896
25,898176,"relational","texture",0,1,0,1707
26,898176,"relational","shape",0,1,0,1518
27,898176,"relational","texture",1,0,0,2071
1,912447,"relational","texture",0,0,1,2139
2,912447,"relational","texture",0,1,0,2003
3,912447,"relational","shape",0,1,0,2119
4,912447,"relational","texture",1,0,0,2614
5,912447,"control","shape",1,1,1,2344
6,912447,"control","texture",0,1,0,2631
7,912447,"control","shape",0,0,1,2334
8,912447,"control","texture",0,0,1,2761
9,912447,"control","texture",1,1,1,1163
10,912447,"relational","shape",0,0,1,2598
11,912447,"relational","texture",0,0,1,3457
12,912447,"relational","texture",0,1,0,0
13,912447,"relational","shape",0,0,1,2757
14,912447,"control","shape",1,1,1,2187
15,912447,"control","shape",0,0,1,1624
16,912447,"control","texture",0,0,1,1945
17,912447,"control","texture",1,1,1,1619
18,912447,"control","texture",1,1,1,1903
19,912447,"control","shape",0,0,1,1470
20,912447,"control","texture",0,0,1,1266
21,912447,"control","shape",1,1,1,1686
22,912447,"control","shape",0,0,1,1456
23,912447,"control","texture",1,1,1,1414
24,912447,"relational","texture",0,0,1,2432
25,912447,"relational","texture",0,1,0,2802
26,912447,"relational","shape",1,1,1,2390
27,912447,"relational","texture",0,0,1,3059
1,990366,"relational","texture",0,0,1,918
2,990366,"relational","texture",1,1,1,1087
3,990366,"relational","shape",1,1,1,1201
4,990366,"relational","texture",0,0,1,855
5,990366,"control","shape",1,1,1,1291
6,990366,"control","texture",1,1,1,1179
7,990366,"control","shape",0,0,1,846
8,990366,"control","texture",0,0,1,1112
9,990366,"control","texture",1,1,1,1279
10,990366,"relational","shape",0,0,1,958
11,990366,"relational","texture",0,0,1,752
12,990366,"relational","texture",0,1,0,1152
13,990366,"relational","shape",0,0,1,1090
14,990366,"control","shape",1,1,1,1092
15,990366,"control","shape",0,0,1,852
16,990366,"control","texture",0,0,1,983
17,990366,"control","texture",1,1,1,1224
18,990366,"control","texture",1,1,1,895
19,990366,"control","shape",0,0,1,726
20,990366,"control","texture",0,0,1,1241
21,990366,"control","shape",1,1,1,928
22,990366,"control","shape",0,0,1,878
23,990366,"control","texture",0,1,0,1075
24,990366,"relational","texture",0,0,1,1453
25,990366,"relational","texture",0,1,0,1205
26,990366,"relational","shape",0,1,0,1036
27,990366,"relational","texture",1,0,0,1133
